DateTime,UnixTimestamp,AccX,AccY,AccZ,GyroX,GyroY,GyroZ,MagX,MagY,MagZ,Roll,Pitch,Yaw
2026-03-20 00:30:48.218,1773937848218,1773937848218,-0.86035156,0.484375,-0.1743164,0.0,0.79345703,-0.30517578,0.0,0.0,0.0,110.148926,58.727417,-167.2174
2026-03-20 00:30:48.230,1773937848230,1773937848230,-0.86035156,0.484375,-0.1743164,0.0,0.79345703,-0.30517578,0.0,0.0,0.0,110.29175,58.71643,-167.08557
2026-03-20 00:30:48.318,1773937848318,1773937848318,-0.86083984,0.4868164,-0.17675781,0.0,0.61035156,0.0,0.0,0.0,0.0,110.29175,58.71643,-167.08557
2026-03-20 00:30:48.329,1773937848329,1773937848329,-0.86083984,0.4868164,-0.17675781,0.0,0.61035156,0.0,0.0,0.0,0.0,110.357666,58.721924,-167.00867
2026-03-20 00:30:48.418,1773937848418,1773937848418,-0.859375,0.484375,-0.17773438,-0.12207031,0.18310547,0.0,0.0,0.0,0.0,110.357666,58.721924,-167.00867
2026-03-20 00:30:48.429,1773937848429,1773937848429,-0.859375,0.484375,-0.17773438,-0.12207031,0.18310547,0.0,0.0,0.0,0.0,110.407104,58.71643,-166.93726
2026-03-20 00:30:48.518,1773937848518,1773937848518,-0.8598633,0.48632812,-0.17529297,0.48828125,0.30517578,0.12207031,0.0,0.0,0.0,110.407104,58.71643,-166.93726
2026-03-20 00:30:48.529,1773937848529,1773937848529,-0.8598633,0.48632812,-0.17529297,0.48828125,0.30517578,0.12207031,0.0,0.0,0.0,110.462036,58.710938,-166.9043
2026-03-20 00:30:48.617,1773937848617,1773937848617,-0.85595703,0.48876953,-0.17675781,-0.12207031,0.4272461,0.0,0.0,0.0,0.0,110.462036,58.710938,-166.9043
2026-03-20 00:30:48.629,1773937848629,1773937848629,-0.85595703,0.48876953,-0.17675781,-0.12207031,0.4272461,0.0,0.0,0.0,0.0,110.52246,58.705444,-166.8274
2026-03-20 00:30:48.717,1773937848717,1773937848717,-0.8588867,0.48779297,-0.1772461,0.36621094,1.7700195,-0.30517578,0.0,0.0,0.0,110.52246,58.705444,-166.8274
2026-03-20 00:30:48.728,1773937848728,1773937848728,-0.8588867,0.48779297,-0.1772461,0.36621094,1.7700195,-0.30517578,0.0,0.0,0.0,110.55542,58.705444,-166.8164
2026-03-20 00:30:48.817,1773937848817,1773937848817,-0.8574219,0.4819336,-0.18554688,0.18310547,-1.5869141,0.24414062,0.0,0.0,0.0,110.55542,58.705444,-166.8164
2026-03-20 00:30:48.828,1773937848828,1773937848828,-0.8574219,0.4819336,-0.18554688,0.18310547,-1.5869141,0.24414062,0.0,0.0,0.0,110.53345,58.705444,-166.81091
2026-03-20 00:30:48.916,1773937848916,1773937848916,-0.86083984,0.484375,-0.17138672,-0.30517578,0.61035156,-0.12207031,0.0,0.0,0.0,110.53345,58.705444,-166.81091
2026-03-20 00:30:48.928,1773937848928,1773937848928,-0.86083984,0.484375,-0.17138672,-0.30517578,0.61035156,-0.12207031,0.0,0.0,0.0,110.6488,58.688965,-166.71753
2026-03-20 00:30:49.016,1773937849016,1773937849016,-0.8598633,0.48583984,-0.18261719,0.24414062,0.79345703,-0.12207031,0.0,0.0,0.0,110.6488,58.688965,-166.71753
2026-03-20 00:30:49.028,1773937849028,1773937849028,-0.8598633,0.48583984,-0.18261719,0.24414062,0.79345703,-0.12207031,0.0,0.0,0.0,110.62683,58.69995,-166.75598
2026-03-20 00:30:49.116,1773937849116,1773937849116,-0.859375,0.48486328,-0.17919922,-0.24414062,-0.61035156,0.0,0.0,0.0,0.0,110.62683,58.69995,-166.75598
2026-03-20 00:30:49.127,1773937849127,1773937849127,-0.859375,0.48486328,-0.17919922,-0.24414062,-0.61035156,0.0,0.0,0.0,0.0,110.67627,58.694458,-166.69556
2026-03-20 00:30:49.216,1773937849216,1773937849216,-0.86035156,0.48486328,-0.17773438,0.79345703,0.4272461,0.12207031,0.0,0.0,0.0,110.67627,58.694458,-166.69556
2026-03-20 00:30:49.227,1773937849227,1773937849227,-0.86035156,0.48486328,-0.17773438,0.79345703,0.4272461,0.12207031,0.0,0.0,0.0,110.72571,58.68347,-166.67908
2026-03-20 00:30:49.315,1773937849315,1773937849315,-0.86328125,0.4921875,-0.18164062,0.91552734,-0.6713867,0.36621094,0.0,0.0,0.0,110.72571,58.68347,-166.67908
2026-03-20 00:30:49.327,1773937849327,1773937849327,-0.86328125,0.4921875,-0.18164062,0.91552734,-0.6713867,0.36621094,0.0,0.0,0.0,110.78613,58.688965,-166.75049
2026-03-20 00:30:49.415,1773937849415,1773937849415,-0.86328125,0.4868164,-0.1743164,-0.91552734,-4.272461,1.0986328,0.0,0.0,0.0,110.78613,58.688965,-166.75049
2026-03-20 00:30:49.427,1773937849427,1773937849427,-0.86328125,0.4868164,-0.1743164,-0.91552734,-4.272461,1.0986328,0.0,0.0,0.0,110.29175,58.71643,-167.3053
2026-03-20 00:30:49.515,1773937849515,1773937849515,-0.86035156,0.48339844,-0.16894531,-0.5493164,0.18310547,0.0,0.0,0.0,0.0,110.29175,58.71643,-167.3053
2026-03-20 00:30:49.526,1773937849526,1773937849526,-0.86035156,0.48339844,-0.16894531,-0.5493164,0.18310547,0.0,0.0,0.0,0.0,109.940186,58.721924,-167.68982
2026-03-20 00:30:49.614,1773937849614,1773937849614,-0.85546875,0.49072266,-0.17285156,-0.91552734,0.061035156,0.061035156,0.0,0.0,0.0,109.940186,58.721924,-167.68982
2026-03-20 00:30:49.626,1773937849626,1773937849626,-0.85546875,0.49072266,-0.17285156,-0.91552734,0.061035156,0.061035156,0.0,0.0,0.0,109.75891,58.74939,-167.8711
2026-03-20 00:30:49.714,1773937849714,1773937849714,-0.85791016,0.48779297,-0.16113281,0.12207031,-1.0986328,0.0,0.0,0.0,0.0,109.75891,58.74939,-167.8711
2026-03-20 00:30:49.725,1773937849725,1773937849725,-0.85791016,0.48779297,-0.16113281,0.12207031,-1.0986328,0.0,0.0,0.0,0.0,109.63257,58.76587,-167.93701
2026-03-20 00:30:49.814,1773937849814,1773937849814,-0.86083984,0.48535156,-0.17480469,-0.061035156,-1.4038086,0.061035156,0.0,0.0,0.0,109.63257,58.76587,-167.93701
2026-03-20 00:30:49.826,1773937849826,1773937849826,-0.86083984,0.48535156,-0.17480469,-0.061035156,-1.4038086,0.061035156,0.0,0.0,0.0,109.39087,58.80432,-168.12378
2026-03-20 00:30:49.914,1773937849914,1773937849914,-0.8569336,0.48535156,-0.16210938,-0.79345703,-0.5493164,0.18310547,0.0,0.0,0.0,109.39087,58.80432,-168.12378
2026-03-20 00:30:49.925,1773937849925,1773937849925,-0.8569336,0.48535156,-0.16210938,-0.79345703,-0.5493164,0.18310547,0.0,0.0,0.0,109.31946,58.809814,-168.17871
2026-03-20 00:30:50.013,1773937850013,1773937850013,-0.86083984,0.48779297,-0.15917969,-0.4272461,0.18310547,0.12207031,0.0,0.0,0.0,109.31946,58.809814,-168.17871
2026-03-20 00:30:50.025,1773937850025,1773937850025,-0.86083984,0.48779297,-0.15917969,-0.4272461,0.18310547,0.12207031,0.0,0.0,0.0,109.18762,58.815308,-168.28308
2026-03-20 00:30:50.113,1773937850113,1773937850113,-0.8618164,0.4873047,-0.16992188,-0.12207031,1.5869141,0.0,0.0,0.0,0.0,109.18762,58.815308,-168.28308
2026-03-20 00:30:50.124,1773937850124,1773937850124,-0.8618164,0.4873047,-0.16992188,-0.12207031,1.5869141,0.0,0.0,0.0,0.0,109.23706,58.79883,-168.17322
2026-03-20 00:30:50.213,1773937850213,1773937850213,-0.8564453,0.48828125,-0.1694336,-0.79345703,-0.36621094,0.30517578,0.0,0.0,0.0,109.23706,58.79883,-168.17322
2026-03-20 00:30:50.224,1773937850224,1773937850224,-0.8564453,0.48828125,-0.1694336,-0.79345703,-0.36621094,0.30517578,0.0,0.0,0.0,109.31946,58.776855,-168.05786
2026-03-20 00:30:50.312,1773937850312,1773937850312,-0.8623047,0.49023438,-0.16210938,0.18310547,2.319336,-0.061035156,0.0,0.0,0.0,109.31946,58.776855,-168.05786
2026-03-20 00:30:50.324,1773937850324,1773937850324,-0.8623047,0.49023438,-0.16210938,0.18310547,2.319336,-0.061035156,0.0,0.0,0.0,109.44031,58.74939,-167.93701
2026-03-20 00:30:50.412,1773937850412,1773937850412,-0.859375,0.48632812,-0.171875,0.061035156,1.8920898,-0.24414062,0.0,0.0,0.0,109.44031,58.74939,-167.93701
2026-03-20 00:30:50.424,1773937850424,1773937850424,-0.859375,0.48632812,-0.171875,0.061035156,1.8920898,-0.24414062,0.0,0.0,0.0,109.6875,58.710938,-167.66785
2026-03-20 00:30:50.512,1773937850512,1773937850512,-0.8564453,0.48535156,-0.17333984,-0.12207031,1.953125,-0.24414062,0.0,0.0,0.0,109.6875,58.710938,-167.66785
2026-03-20 00:30:50.523,1773937850523,1773937850523,-0.8564453,0.48535156,-0.17333984,-0.12207031,1.953125,-0.24414062,0.0,0.0,0.0,109.98413,58.67798,-167.34924
2026-03-20 00:30:50.612,1773937850612,1773937850612,-0.85302734,0.48779297,-0.17138672,-0.12207031,-0.8544922,0.4272461,0.0,0.0,0.0,109.98413,58.67798,-167.34924
2026-03-20 00:30:50.623,1773937850623,1773937850623,-0.85302734,0.48779297,-0.17138672,-0.12207031,-0.8544922,0.4272461,0.0,0.0,0.0,110.10498,58.656006,-167.21191
2026-03-20 00:30:50.711,1773937850711,1773937850711,-0.85839844,0.49169922,-0.16796875,0.9765625,2.6855469,-0.18310547,0.0,0.0,0.0,110.10498,58.656006,-167.21191
2026-03-20 00:30:50.723,1773937850723,1773937850723,-0.85839844,0.49169922,-0.16796875,0.9765625,2.6855469,-0.18310547,0.0,0.0,0.0,110.22034,58.650513,-167.18445
2026-03-20 00:30:50.811,1773937850811,1773937850811,-0.85546875,0.48486328,-0.18603516,0.30517578,-0.7324219,-0.12207031,0.0,0.0,0.0,110.22034,58.650513,-167.18445
2026-03-20 00:30:50.822,1773937850822,1773937850822,-0.85546875,0.48486328,-0.18603516,0.30517578,-0.7324219,-0.12207031,0.0,0.0,0.0,110.15991,58.67798,-167.24487
2026-03-20 00:30:50.911,1773937850911,1773937850911,-0.86083984,0.4873047,-0.16748047,-0.18310547,0.0,-0.24414062,0.0,0.0,0.0,110.15991,58.67798,-167.24487
2026-03-20 00:30:50.922,1773937850922,1773937850922,-0.86083984,0.4873047,-0.16748047,-0.18310547,0.0,-0.24414062,0.0,0.0,0.0,110.36865,58.6615,-167.04712
2026-03-20 00:30:51.010,1773937851010,1773937851010,-0.8598633,0.4868164,-0.18017578,0.24414062,1.3427734,-0.18310547,0.0,0.0,0.0,110.36865,58.6615,-167.04712
2026-03-20 00:30:51.022,1773937851022,1773937851022,-0.8598633,0.4868164,-0.18017578,0.24414062,1.3427734,-0.18310547,0.0,0.0,0.0,110.390625,58.6615,-167.06909
2026-03-20 00:30:51.110,1773937851110,1773937851110,-0.86083984,0.48388672,-0.17919922,-0.24414062,-0.24414062,0.12207031,0.0,0.0,0.0,110.390625,58.6615,-167.06909
2026-03-20 00:30:51.122,1773937851122,1773937851122,-0.86083984,0.48388672,-0.17919922,-0.24414062,-0.24414062,0.12207031,0.0,0.0,0.0,110.42908,58.650513,-167.01416
2026-03-20 00:30:51.210,1773937851210,1773937851210,-0.8598633,0.48632812,-0.1772461,-0.061035156,1.159668,-0.18310547,0.0,0.0,0.0,110.42908,58.650513,-167.01416
2026-03-20 00:30:51.222,1773937851222,1773937851222,-0.8598633,0.48632812,-0.1772461,-0.061035156,1.159668,-0.18310547,0.0,0.0,0.0,110.50598,58.64502,-166.93726
2026-03-20 00:30:51.310,1773937851310,1773937851310,-0.859375,0.4868164,-0.18164062,0.18310547,0.0,0.061035156,0.0,0.0,0.0,110.50598,58.64502,-166.93726
2026-03-20 00:30:51.323,1773937851323,1773937851323,-0.859375,0.4868164,-0.18164062,0.18310547,0.0,0.061035156,0.0,0.0,0.0,110.56091,58.634033,-166.8988
2026-03-20 00:30:51.409,1773937851409,1773937851409,-0.8588867,0.48632812,-0.17822266,-0.24414062,0.36621094,0.0,0.0,0.0,0.0,110.56091,58.634033,-166.8988
2026-03-20 00:30:51.421,1773937851421,1773937851421,-0.8588867,0.48632812,-0.17822266,-0.24414062,0.36621094,0.0,0.0,0.0,0.0,110.62683,58.623047,-166.83289
2026-03-20 00:30:51.509,1773937851509,1773937851509,-0.8588867,0.48583984,-0.17822266,0.5493164,0.24414062,0.0,0.0,0.0,0.0,110.62683,58.623047,-166.83289
2026-03-20 00:30:51.521,1773937851521,1773937851521,-0.8588867,0.48583984,-0.17822266,0.5493164,0.24414062,0.0,0.0,0.0,0.0,110.65979,58.617554,-166.8219
2026-03-20 00:30:51.609,1773937851609,1773937851609,-0.85546875,0.4897461,-0.17675781,0.061035156,0.0,0.0,0.0,0.0,0.0,110.65979,58.617554,-166.8219
2026-03-20 00:30:51.620,1773937851620,1773937851620,-0.85546875,0.4897461,-0.17675781,0.061035156,0.0,0.0,0.0,0.0,0.0,110.66528,58.617554,-166.8274
2026-03-20 00:30:51.709,1773937851709,1773937851709,-0.85839844,0.4892578,-0.18115234,1.0986328,0.36621094,0.0,0.0,0.0,0.0,110.66528,58.617554,-166.8274
2026-03-20 00:30:51.720,1773937851720,1773937851720,-0.85839844,0.4892578,-0.18115234,1.0986328,0.36621094,0.0,0.0,0.0,0.0,110.64331,58.634033,-166.9043
2026-03-20 00:30:51.808,1773937851808,1773937851808,-0.859375,0.48486328,-0.16699219,-0.48828125,-6.713867,1.0986328,0.0,0.0,0.0,110.64331,58.634033,-166.9043
2026-03-20 00:30:51.820,1773937851820,1773937851820,-0.859375,0.48486328,-0.16699219,-0.48828125,-6.713867,1.0986328,0.0,0.0,0.0,110.11597,58.694458,-167.50305
2026-03-20 00:30:51.908,1773937851908,1773937851908,-0.85546875,0.48632812,-0.16552734,-0.91552734,0.12207031,-0.12207031,0.0,0.0,0.0,110.11597,58.694458,-167.50305
2026-03-20 00:30:51.919,1773937851919,1773937851919,-0.85546875,0.48632812,-0.16552734,-0.91552734,0.12207031,-0.12207031,0.0,0.0,0.0,109.61609,58.727417,-168.01392
2026-03-20 00:30:52.007,1773937852007,1773937852007,-0.8588867,0.4892578,-0.17041016,0.0,-1.159668,0.4272461,0.0,0.0,0.0,109.61609,58.727417,-168.01392
2026-03-20 00:30:52.019,1773937852019,1773937852019,-0.8588867,0.4892578,-0.17041016,0.0,-1.159668,0.4272461,0.0,0.0,0.0,109.37988,58.738403,-168.23914
2026-03-20 00:30:52.107,1773937852107,1773937852107,-0.86035156,0.48828125,-0.16894531,-0.30517578,-1.0986328,0.061035156,0.0,0.0,0.0,109.37988,58.738403,-168.23914
2026-03-20 00:30:52.119,1773937852119,1773937852119,-0.86035156,0.48828125,-0.16894531,-0.30517578,-1.0986328,0.061035156,0.0,0.0,0.0,109.24255,58.754883,-168.31604
2026-03-20 00:30:52.207,1773937852207,1773937852207,-0.859375,0.4892578,-0.16259766,-0.6713867,-0.61035156,0.0,0.0,0.0,0.0,109.24255,58.754883,-168.31604
2026-03-20 00:30:52.218,1773937852218,1773937852218,-0.859375,0.4892578,-0.16259766,-0.6713867,-0.61035156,0.0,0.0,0.0,0.0,109.11621,58.76587,-168.40393
2026-03-20 00:30:52.307,1773937852307,1773937852307,-0.859375,0.48876953,-0.16503906,-0.36621094,0.12207031,0.0,0.0,0.0,0.0,109.11621,58.76587,-168.40393
2026-03-20 00:30:52.318,1773937852318,1773937852318,-0.859375,0.48876953,-0.16503906,-0.36621094,0.12207031,0.0,0.0,0.0,0.0,109.017334,58.771362,-168.47534
2026-03-20 00:30:52.406,1773937852406,1773937852406,-0.859375,0.49023438,-0.16552734,-0.91552734,0.18310547,-0.12207031,0.0,0.0,0.0,109.017334,58.771362,-168.47534
2026-03-20 00:30:52.418,1773937852418,1773937852418,-0.859375,0.49023438,-0.16552734,-0.91552734,0.18310547,-0.12207031,0.0,0.0,0.0,108.984375,58.78235,-168.43689
2026-03-20 00:30:52.506,1773937852506,1773937852506,-0.85839844,0.48828125,-0.16308594,-0.6713867,0.6713867,-0.18310547,0.0,0.0,0.0,108.984375,58.78235,-168.43689
2026-03-20 00:30:52.518,1773937852518,1773937852518,-0.85839844,0.48828125,-0.16308594,-0.6713867,0.6713867,-0.18310547,0.0,0.0,0.0,109.03381,58.76587,-168.33252
2026-03-20 00:30:52.606,1773937852606,1773937852606,-0.85791016,0.48779297,-0.16992188,0.18310547,1.7089844,0.0,0.0,0.0,0.0,109.03381,58.76587,-168.33252
2026-03-20 00:30:52.617,1773937852617,1773937852617,-0.85791016,0.48779297,-0.16992188,0.18310547,1.7089844,0.0,0.0,0.0,0.0,109.11621,58.74939,-168.22815
2026-03-20 00:30:52.705,1773937852705,1773937852705,-0.8569336,0.49267578,-0.15576172,-0.61035156,-1.159668,0.0,0.0,0.0,0.0,109.11621,58.74939,-168.22815
2026-03-20 00:30:52.717,1773937852717,1773937852717,-0.8569336,0.49267578,-0.15576172,-0.61035156,-1.159668,0.0,0.0,0.0,0.0,109.19861,58.738403,-168.14575
2026-03-20 00:30:52.805,1773937852805,1773937852805,-0.86279297,0.49072266,-0.16015625,0.061035156,1.953125,-0.36621094,0.0,0.0,0.0,109.19861,58.738403,-168.14575
2026-03-20 00:30:52.817,1773937852817,1773937852817,-0.86279297,0.49072266,-0.16015625,0.061035156,1.953125,-0.36621094,0.0,0.0,0.0,109.24255,58.738403,-168.07434
2026-03-20 00:30:52.905,1773937852905,1773937852905,-0.8520508,0.4868164,-0.17529297,0.0,0.7324219,0.0,0.0,0.0,0.0,109.24255,58.738403,-168.07434
2026-03-20 00:30:52.916,1773937852916,1773937852916,-0.8520508,0.4868164,-0.17529297,0.0,0.7324219,0.0,0.0,0.0,0.0,109.33594,58.738403,-167.97546
2026-03-20 00:30:53.005,1773937853005,1773937853005,-0.86376953,0.4921875,-0.15966797,0.4272461,1.2207031,-0.061035156,0.0,0.0,0.0,109.33594,58.738403,-167.97546
2026-03-20 00:30:53.016,1773937853016,1773937853016,-0.86376953,0.4921875,-0.15966797,0.4272461,1.2207031,-0.061035156,0.0,0.0,0.0,109.627075,58.694458,-167.72278
2026-03-20 00:30:53.104,1773937853104,1773937853104,-0.8613281,0.4873047,-0.1772461,0.0,0.0,0.0,0.0,0.0,0.0,109.627075,58.694458,-167.72278
2026-03-20 00:30:53.116,1773937853116,1773937853116,-0.8613281,0.4873047,-0.1772461,0.0,0.0,0.0,0.0,0.0,0.0,109.59961,58.688965,-167.75024
2026-03-20 00:30:53.204,1773937853204,1773937853204,-0.86035156,0.48828125,-0.16699219,-0.5493164,-0.24414062,0.0,0.0,0.0,0.0,109.59961,58.688965,-167.75024
2026-03-20 00:30:53.216,1773937853216,1773937853216,-0.86035156,0.48828125,-0.16699219,-0.5493164,-0.24414062,0.0,0.0,0.0,0.0,109.66553,58.67798,-167.68982
2026-03-20 00:30:53.304,1773937853304,1773937853304,-0.8598633,0.4892578,-0.17041016,0.0,0.61035156,0.061035156,0.0,0.0,0.0,109.66553,58.67798,-167.68982
2026-03-20 00:30:53.316,1773937853316,1773937853316,-0.8598633,0.4892578,-0.17041016,0.0,0.61035156,0.061035156,0.0,0.0,0.0,109.63806,58.68347,-167.71729
2026-03-20 00:30:53.403,1773937853403,1773937853403,-0.8588867,0.4873047,-0.171875,-0.24414062,-0.30517578,0.0,0.0,0.0,0.0,109.63806,58.68347,-167.71729
2026-03-20 00:30:53.415,1773937853415,1773937853415,-0.8588867,0.4873047,-0.171875,-0.24414062,-0.30517578,0.0,0.0,0.0,0.0,109.68201,58.672485,-167.66785
2026-03-20 00:30:53.503,1773937853503,1773937853503,-0.8613281,0.4873047,-0.17333984,-0.91552734,0.61035156,0.0,0.0,0.0,0.0,109.68201,58.672485,-167.66785
2026-03-20 00:30:53.515,1773937853515,1773937853515,-0.8613281,0.4873047,-0.17333984,-0.91552734,0.61035156,0.0,0.0,0.0,0.0,109.67651,58.672485,-167.66785
2026-03-20 00:30:53.603,1773937853603,1773937853603,-0.8598633,0.48486328,-0.1772461,0.36621094,-0.5493164,0.30517578,0.0,0.0,0.0,109.67651,58.672485,-167.66785
2026-03-20 00:30:53.615,1773937853615,1773937853615,-0.8598633,0.48486328,-0.1772461,0.36621094,-0.5493164,0.30517578,0.0,0.0,0.0,109.67102,58.672485,-167.7008
2026-03-20 00:30:53.702,1773937853702,1773937853702,-0.8588867,0.48828125,-0.16357422,-0.7324219,0.24414062,0.061035156,0.0,0.0,0.0,109.67102,58.672485,-167.7008
2026-03-20 00:30:53.714,1773937853714,1773937853714,-0.8588867,0.48828125,-0.16357422,-0.7324219,0.24414062,0.061035156,0.0,0.0,0.0,109.80835,58.6615,-167.57996
2026-03-20 00:30:53.802,1773937853802,1773937853802,-0.8618164,0.49121094,-0.16748047,0.4272461,1.8310547,-0.061035156,0.0,0.0,0.0,109.80835,58.6615,-167.57996
2026-03-20 00:30:53.814,1773937853814,1773937853814,-0.8618164,0.49121094,-0.16748047,0.4272461,1.8310547,-0.061035156,0.0,0.0,0.0,109.86328,58.650513,-167.56897
2026-03-20 00:30:53.902,1773937853902,1773937853902,-0.8588867,0.4873047,-0.18066406,0.61035156,-0.4272461,0.24414062,0.0,0.0,0.0,109.86328,58.650513,-167.56897
2026-03-20 00:30:53.914,1773937853914,1773937853914,-0.8588867,0.4873047,-0.18066406,0.61035156,-0.4272461,0.24414062,0.0,0.0,0.0,109.923706,58.639526,-167.53052
2026-03-20 00:30:54.002,1773937854002,1773937854002,-0.8613281,0.49169922,-0.16796875,0.12207031,0.7324219,0.0,0.0,0.0,0.0,109.923706,58.639526,-167.53052
2026-03-20 00:30:54.013,1773937854013,1773937854013,-0.8613281,0.49169922,-0.16796875,0.12207031,0.7324219,0.0,0.0,0.0,0.0,110.061035,58.623047,-167.44263
2026-03-20 00:30:54.101,1773937854101,1773937854101,-0.859375,0.48876953,-0.18115234,0.30517578,-0.48828125,0.061035156,0.0,0.0,0.0,110.061035,58.623047,-167.44263
2026-03-20 00:30:54.113,1773937854113,1773937854113,-0.859375,0.48876953,-0.18115234,0.30517578,-0.48828125,0.061035156,0.0,0.0,0.0,110.01709,58.617554,-167.50305
2026-03-20 00:30:54.201,1773937854201,1773937854201,-0.8647461,0.49121094,-0.16015625,-0.8544922,-2.6245117,0.30517578,0.0,0.0,0.0,110.01709,58.617554,-167.50305
2026-03-20 00:30:54.212,1773937854212,1773937854212,-0.8647461,0.49121094,-0.16015625,-0.8544922,-2.6245117,0.30517578,0.0,0.0,0.0,109.885254,58.639526,-167.67883
2026-03-20 00:30:54.301,1773937854301,1773937854301,-0.85595703,0.49121094,-0.17333984,-1.159668,-1.953125,0.18310547,0.0,0.0,0.0,109.885254,58.639526,-167.67883
2026-03-20 00:30:54.312,1773937854312,1773937854312,-0.85595703,0.49121094,-0.17333984,-1.159668,-1.953125,0.18310547,0.0,0.0,0.0,109.07776,58.71643,-168.46985
2026-03-20 00:30:54.400,1773937854400,1773937854400,-0.859375,0.4873047,-0.16357422,-0.12207031,-2.1362305,0.30517578,0.0,0.0,0.0,109.07776,58.71643,-168.46985
2026-03-20 00:30:54.412,1773937854412,1773937854412,-0.859375,0.4873047,-0.16357422,-0.12207031,-2.1362305,0.30517578,0.0,0.0,0.0,108.87451,58.727417,-168.63464
2026-03-20 00:30:54.500,1773937854500,1773937854500,-0.86279297,0.48779297,-0.1616211,-0.79345703,0.18310547,-0.18310547,0.0,0.0,0.0,108.87451,58.727417,-168.63464
2026-03-20 00:30:54.512,1773937854512,1773937854512,-0.86279297,0.48779297,-0.1616211,-0.79345703,0.18310547,-0.18310547,0.0,0.0,0.0,108.78662,58.738403,-168.69507
2026-03-20 00:30:54.600,1773937854600,1773937854600,-0.86376953,0.48779297,-0.17138672,-0.30517578,-1.0986328,0.061035156,0.0,0.0,0.0,108.78662,58.738403,-168.69507
2026-03-20 00:30:54.612,1773937854612,1773937854612,-0.86376953,0.48779297,-0.17138672,-0.30517578,-1.0986328,0.061035156,0.0,0.0,0.0,108.73718,58.743896,-168.73352
2026-03-20 00:30:54.699,1773937854699,1773937854699,-0.8598633,0.48828125,-0.15576172,-1.2207031,-0.8544922,0.18310547,0.0,0.0,0.0,108.73718,58.743896,-168.73352
2026-03-20 00:30:54.711,1773937854711,1773937854711,-0.8598633,0.48828125,-0.15576172,-1.2207031,-0.8544922,0.18310547,0.0,0.0,0.0,108.60535,58.771362,-168.83789
2026-03-20 00:30:54.799,1773937854799,1773937854799,-0.8613281,0.49169922,-0.16015625,0.24414062,0.79345703,0.12207031,0.0,0.0,0.0,108.60535,58.771362,-168.83789
2026-03-20 00:30:54.811,1773937854811,1773937854811,-0.8613281,0.49169922,-0.16015625,0.24414062,0.79345703,0.12207031,0.0,0.0,0.0,108.52844,58.776855,-168.92029
2026-03-20 00:30:54.899,1773937854899,1773937854899,-0.859375,0.4892578,-0.16259766,0.0,-0.8544922,0.36621094,0.0,0.0,0.0,108.52844,58.776855,-168.92029
2026-03-20 00:30:54.911,1773937854911,1773937854911,-0.859375,0.4892578,-0.16259766,0.0,-0.8544922,0.36621094,0.0,0.0,0.0,108.50098,58.760376,-168.92578
2026-03-20 00:30:54.999,1773937854999,1773937854999,-0.8598633,0.49169922,-0.15283203,-0.8544922,-0.36621094,0.061035156,0.0,0.0,0.0,108.50098,58.760376,-168.92578
2026-03-20 00:30:55.010,1773937855010,1773937855010,-0.8598633,0.49169922,-0.15283203,-0.8544922,-0.36621094,0.061035156,0.0,0.0,0.0,108.41858,58.754883,-168.96973
2026-03-20 00:30:55.098,1773937855098,1773937855098,-0.8588867,0.49121094,-0.16064453,-0.30517578,0.6713867,0.12207031,0.0,0.0,0.0,108.41858,58.754883,-168.96973
2026-03-20 00:30:55.110,1773937855110,1773937855110,-0.8588867,0.49121094,-0.16064453,-0.30517578,0.6713867,0.12207031,0.0,0.0,0.0,108.36365,58.738403,-168.98071
2026-03-20 00:30:55.198,1773937855198,1773937855198,-0.86035156,0.49121094,-0.16259766,-0.18310547,1.8310547,-0.18310547,0.0,0.0,0.0,108.36365,58.738403,-168.98071
2026-03-20 00:30:55.210,1773937855210,1773937855210,-0.86035156,0.49121094,-0.16259766,-0.18310547,1.8310547,-0.18310547,0.0,0.0,0.0,108.55591,58.705444,-168.76099
2026-03-20 00:30:55.298,1773937855298,1773937855298,-0.8613281,0.49267578,-0.16259766,-0.4272461,1.0986328,-0.24414062,0.0,0.0,0.0,108.55591,58.705444,-168.76099
2026-03-20 00:30:55.309,1773937855309,1773937855309,-0.8613281,0.49267578,-0.16259766,-0.4272461,1.0986328,-0.24414062,0.0,0.0,0.0,108.742676,58.68347,-168.55225
2026-03-20 00:30:55.397,1773937855397,1773937855397,-0.8588867,0.49121094,-0.16357422,0.0,-0.48828125,0.0,0.0,0.0,0.0,108.742676,58.68347,-168.55225
2026-03-20 00:30:55.409,1773937855409,1773937855409,-0.8588867,0.49121094,-0.16357422,0.0,-0.48828125,0.0,0.0,0.0,0.0,108.76465,58.688965,-168.5138
2026-03-20 00:30:55.497,1773937855497,1773937855497,-0.85839844,0.48388672,-0.16748047,0.7324219,2.5024414,-0.30517578,0.0,0.0,0.0,108.76465,58.688965,-168.5138
2026-03-20 00:30:55.509,1773937855509,1773937855509,-0.85839844,0.48388672,-0.16748047,0.7324219,2.5024414,-0.30517578,0.0,0.0,0.0,109.0448,58.64502,-168.22815
2026-03-20 00:30:55.597,1773937855597,1773937855597,-0.86279297,0.48779297,-0.17773438,0.48828125,0.5493164,0.0,0.0,0.0,0.0,109.0448,58.64502,-168.22815
2026-03-20 00:30:55.608,1773937855608,1773937855608,-0.86279297,0.48779297,-0.17773438,0.48828125,0.5493164,0.0,0.0,0.0,0.0,109.35242,58.601074,-167.97546
2026-03-20 00:30:55.697,1773937855697,1773937855697,-0.86328125,0.48876953,-0.16357422,-0.5493164,0.24414062,-0.12207031,0.0,0.0,0.0,109.35242,58.601074,-167.97546
2026-03-20 00:30:55.708,1773937855708,1773937855708,-0.86328125,0.48876953,-0.16357422,-0.5493164,0.24414062,-0.12207031,0.0,0.0,0.0,109.59961,58.590088,-167.72278
2026-03-20 00:30:55.796,1773937855796,1773937855796,-0.8588867,0.49023438,-0.16845703,0.12207031,1.2817383,-0.061035156,0.0,0.0,0.0,109.59961,58.590088,-167.72278
2026-03-20 00:30:55.808,1773937855808,1773937855808,-0.8588867,0.49023438,-0.16845703,0.12207031,1.2817383,-0.061035156,0.0,0.0,0.0,109.63806,58.59558,-167.71729
2026-03-20 00:30:55.896,1773937855896,1773937855896,-0.85595703,0.4892578,-0.17382812,0.24414062,-0.61035156,0.24414062,0.0,0.0,0.0,109.63806,58.59558,-167.71729
2026-03-20 00:30:55.908,1773937855908,1773937855908,-0.85595703,0.4892578,-0.17382812,0.24414062,-0.61035156,0.24414062,0.0,0.0,0.0,109.67651,58.5791,-167.7063
2026-03-20 00:30:55.996,1773937855996,1773937855996,-0.86083984,0.49023438,-0.16552734,0.061035156,-0.12207031,0.061035156,0.0,0.0,0.0,109.67651,58.5791,-167.7063
2026-03-20 00:30:56.008,1773937856008,1773937856008,-0.86083984,0.49023438,-0.16552734,0.061035156,-0.12207031,0.061035156,0.0,0.0,0.0,109.70398,58.568115,-167.7063
2026-03-20 00:30:56.095,1773937856095,1773937856095,-0.85839844,0.4892578,-0.17675781,0.0,-0.061035156,-0.061035156,0.0,0.0,0.0,109.70398,58.568115,-167.7063
2026-03-20 00:30:56.107,1773937856107,1773937856107,-0.85839844,0.4892578,-0.17675781,0.0,-0.061035156,-0.061035156,0.0,0.0,0.0,109.67102,58.57361,-167.74475
2026-03-20 00:30:56.195,1773937856195,1773937856195,-0.85791016,0.4892578,-0.17138672,-0.18310547,0.24414062,-0.30517578,0.0,0.0,0.0,109.67102,58.57361,-167.74475
2026-03-20 00:30:56.207,1773937856207,1773937856207,-0.85791016,0.4892578,-0.17138672,-0.18310547,0.24414062,-0.30517578,0.0,0.0,0.0,109.72046,58.590088,-167.7008
2026-03-20 00:30:56.295,1773937856295,1773937856295,-0.8598633,0.48779297,-0.17041016,0.061035156,0.0,-0.061035156,0.0,0.0,0.0,109.72046,58.590088,-167.7008
2026-03-20 00:30:56.306,1773937856306,1773937856306,-0.8598633,0.48779297,-0.17041016,0.061035156,0.0,-0.061035156,0.0,0.0,0.0,109.75891,58.590088,-167.68982
2026-03-20 00:30:56.394,1773937856394,1773937856394,-0.8588867,0.48779297,-0.17333984,0.30517578,0.061035156,0.12207031,0.0,0.0,0.0,109.75891,58.590088,-167.68982
2026-03-20 00:30:56.406,1773937856406,1773937856406,-0.8588867,0.48779297,-0.17333984,0.30517578,0.061035156,0.12207031,0.0,0.0,0.0,109.79187,58.590088,-167.65686
2026-03-20 00:30:56.494,1773937856494,1773937856494,-0.86035156,0.48486328,-0.1772461,-0.48828125,0.18310547,-0.24414062,0.0,0.0,0.0,109.79187,58.590088,-167.65686
2026-03-20 00:30:56.506,1773937856506,1773937856506,-0.86035156,0.48486328,-0.1772461,-0.48828125,0.18310547,-0.24414062,0.0,0.0,0.0,109.85779,58.584595,-167.58545
2026-03-20 00:30:56.594,1773937856594,1773937856594,-0.8618164,0.48486328,-0.1796875,-0.12207031,-1.0375977,0.30517578,0.0,0.0,0.0,109.85779,58.584595,-167.58545
2026-03-20 00:30:56.605,1773937856605,1773937856605,-0.8618164,0.48486328,-0.1796875,-0.12207031,-1.0375977,0.30517578,0.0,0.0,0.0,109.852295,58.57361,-167.6239
2026-03-20 00:30:56.694,1773937856694,1773937856694,-0.86279297,0.49169922,-0.16357422,-0.12207031,-0.48828125,0.24414062,0.0,0.0,0.0,109.852295,58.57361,-167.6239
2026-03-20 00:30:56.705,1773937856705,1773937856705,-0.86279297,0.49169922,-0.16357422,-0.12207031,-0.48828125,0.24414062,0.0,0.0,0.0,109.96765,58.57361,-167.55798
2026-03-20 00:30:56.794,1773937856794,1773937856794,-0.86279297,0.49072266,-0.16259766,-0.4272461,-2.380371,0.5493164,0.0,0.0,0.0,109.96765,58.57361,-167.55798
2026-03-20 00:30:56.805,1773937856805,1773937856805,-0.86279297,0.49072266,-0.16259766,-0.4272461,-2.380371,0.5493164,0.0,0.0,0.0,109.56665,58.606567,-168.03589
2026-03-20 00:30:56.893,1773937856893,1773937856893,-0.8564453,0.49072266,-0.17773438,-1.2207031,-2.9907227,0.61035156,0.0,0.0,0.0,109.56665,58.606567,-168.03589
2026-03-20 00:30:56.904,1773937856904,1773937856904,-0.8564453,0.49072266,-0.17773438,-1.2207031,-2.9907227,0.61035156,0.0,0.0,0.0,108.81958,58.666992,-168.77747
2026-03-20 00:30:56.993,1773937856993,1773937856993,-0.8598633,0.49169922,-0.15527344,-0.061035156,-1.0986328,0.24414062,0.0,0.0,0.0,108.81958,58.666992,-168.77747
2026-03-20 00:30:57.004,1773937857004,1773937857004,-0.8598633,0.49169922,-0.15527344,-0.061035156,-1.0986328,0.24414062,0.0,0.0,0.0,108.63281,58.672485,-168.94775
2026-03-20 00:30:57.092,1773937857092,1773937857092,-0.8598633,0.4897461,-0.16259766,-0.30517578,0.5493164,-0.24414062,0.0,0.0,0.0,108.63281,58.672485,-168.94775
2026-03-20 00:30:57.104,1773937857104,1773937857104,-0.8598633,0.4897461,-0.16259766,-0.30517578,0.5493164,-0.24414062,0.0,0.0,0.0,108.55591,58.68347,-169.00269
2026-03-20 00:30:57.192,1773937857192,1773937857192,-0.86035156,0.49023438,-0.15917969,-0.5493164,-0.30517578,0.061035156,0.0,0.0,0.0,108.55591,58.68347,-169.00269
2026-03-20 00:30:57.204,1773937857204,1773937857204,-0.86035156,0.49023438,-0.15917969,-0.5493164,-0.30517578,0.061035156,0.0,0.0,0.0,108.52844,58.688965,-169.00269
2026-03-20 00:30:57.292,1773937857292,1773937857292,-0.8569336,0.49121094,-0.16259766,-0.12207031,0.0,0.061035156,0.0,0.0,0.0,108.52844,58.688965,-169.00269
2026-03-20 00:30:57.303,1773937857303,1773937857303,-0.8569336,0.49121094,-0.16259766,-0.12207031,0.0,0.061035156,0.0,0.0,0.0,108.429565,58.694458,-169.07959
2026-03-20 00:30:57.392,1773937857392,1773937857392,-0.86035156,0.49316406,-0.15771484,-0.4272461,-0.79345703,0.24414062,0.0,0.0,0.0,108.429565,58.694458,-169.07959
2026-03-20 00:30:57.403,1773937857403,1773937857403,-0.86035156,0.49316406,-0.15771484,-0.4272461,-0.79345703,0.24414062,0.0,0.0,0.0,108.40759,58.688965,-169.06311
2026-03-20 00:30:57.491,1773937857491,1773937857491,-0.85839844,0.49316406,-0.15576172,0.061035156,0.061035156,0.061035156,0.0,0.0,0.0,108.40759,58.688965,-169.06311
2026-03-20 00:30:57.503,1773937857503,1773937857503,-0.85839844,0.49316406,-0.15576172,0.061035156,0.061035156,0.061035156,0.0,0.0,0.0,108.325195,58.68347,-169.10156
2026-03-20 00:30:57.591,1773937857591,1773937857591,-0.8618164,0.4921875,-0.16601562,-0.12207031,0.0,0.0,0.0,0.0,0.0,108.325195,58.68347,-169.10156
2026-03-20 00:30:57.602,1773937857602,1773937857602,-0.8618164,0.4921875,-0.16601562,-0.12207031,0.0,0.0,0.0,0.0,0.0,108.237305,58.688965,-169.14551
2026-03-20 00:30:57.691,1773937857691,1773937857691,-0.8598633,0.48876953,-0.16699219,-0.36621094,0.4272461,0.0,0.0,0.0,0.0,108.237305,58.688965,-169.14551
2026-03-20 00:30:57.702,1773937857702,1773937857702,-0.8598633,0.48876953,-0.16699219,-0.36621094,0.4272461,0.0,0.0,0.0,0.0,108.23181,58.688965,-169.11255
2026-03-20 00:30:57.790,1773937857790,1773937857790,-0.8598633,0.49169922,-0.15576172,-0.30517578,0.79345703,0.0,0.0,0.0,0.0,108.23181,58.688965,-169.11255
2026-03-20 00:30:57.802,1773937857802,1773937857802,-0.8598633,0.49169922,-0.15576172,-0.30517578,0.79345703,0.0,0.0,0.0,0.0,108.4021,58.656006,-168.92578
2026-03-20 00:30:57.890,1773937857890,1773937857890,-0.8613281,0.49365234,-0.16113281,0.48828125,0.61035156,0.0,0.0,0.0,0.0,108.4021,58.656006,-168.92578
2026-03-20 00:30:57.902,1773937857902,1773937857902,-0.8613281,0.49365234,-0.16113281,0.48828125,0.61035156,0.0,0.0,0.0,0.0,108.49548,58.64502,-168.8324
2026-03-20 00:30:57.990,1773937857990,1773937857990,-0.8564453,0.4897461,-0.1640625,0.061035156,0.4272461,0.0,0.0,0.0,0.0,108.49548,58.64502,-168.8324
2026-03-20 00:30:58.001,1773937858001,1773937858001,-0.8564453,0.4897461,-0.1640625,0.061035156,0.4272461,0.0,0.0,0.0,0.0,108.566895,58.634033,-168.77197
2026-03-20 00:30:58.089,1773937858089,1773937858089,-0.85839844,0.49169922,-0.16699219,0.8544922,2.746582,-0.30517578,0.0,0.0,0.0,108.566895,58.634033,-168.77197
2026-03-20 00:30:58.101,1773937858101,1773937858101,-0.85839844,0.49169922,-0.16699219,0.8544922,2.746582,-0.30517578,0.0,0.0,0.0,108.863525,58.584595,-168.47534
2026-03-20 00:30:58.189,1773937858189,1773937858189,-0.859375,0.49121094,-0.16845703,0.0,0.4272461,-0.4272461,0.0,0.0,0.0,108.863525,58.584595,-168.47534
2026-03-20 00:30:58.201,1773937858201,1773937858201,-0.859375,0.49121094,-0.16845703,0.0,0.4272461,-0.4272461,0.0,0.0,0.0,109.176636,58.568115,-168.16772
2026-03-20 00:30:58.289,1773937858289,1773937858289,-0.8588867,0.49121094,-0.16455078,0.0,1.0986328,-0.24414062,0.0,0.0,0.0,109.176636,58.568115,-168.16772
2026-03-20 00:30:58.301,1773937858301,1773937858301,-0.8588867,0.49121094,-0.16455078,0.0,1.0986328,-0.24414062,0.0,0.0,0.0,109.30847,58.57361,-168.04138
2026-03-20 00:30:58.389,1773937858389,1773937858389,-0.8588867,0.49072266,-0.17089844,0.12207031,0.0,0.0,0.0,0.0,0.0,109.30847,58.57361,-168.04138
2026-03-20 00:30:58.401,1773937858401,1773937858401,-0.8588867,0.49072266,-0.17089844,0.12207031,0.0,0.0,0.0,0.0,0.0,109.330444,58.5791,-168.01941
2026-03-20 00:30:58.488,1773937858488,1773937858488,-0.8544922,0.49560547,-0.16552734,0.18310547,0.12207031,0.12207031,0.0,0.0,0.0,109.330444,58.5791,-168.01941
2026-03-20 00:30:58.500,1773937858500,1773937858500,-0.8544922,0.49560547,-0.16552734,0.18310547,0.12207031,0.12207031,0.0,0.0,0.0,109.418335,58.568115,-167.93701
2026-03-20 00:30:58.588,1773937858588,1773937858588,-0.85839844,0.49121094,-0.171875,0.6713867,1.5258789,-0.48828125,0.0,0.0,0.0,109.418335,58.568115,-167.93701
2026-03-20 00:30:58.599,1773937858599,1773937858599,-0.85839844,0.49121094,-0.171875,0.6713867,1.5258789,-0.48828125,0.0,0.0,0.0,109.41284,58.57361,-167.96448
2026-03-20 00:30:58.688,1773937858688,1773937858688,-0.8574219,0.4873047,-0.17529297,-0.12207031,-1.4648438,-0.12207031,0.0,0.0,0.0,109.41284,58.57361,-167.96448
2026-03-20 00:30:58.699,1773937858699,1773937858699,-0.8574219,0.4873047,-0.17529297,-0.12207031,-1.4648438,-0.12207031,0.0,0.0,0.0,109.489746,58.590088,-167.8601
2026-03-20 00:30:58.788,1773937858788,1773937858788,-0.859375,0.49121094,-0.1640625,-0.061035156,0.91552734,-0.18310547,0.0,0.0,0.0,109.489746,58.590088,-167.8601
2026-03-20 00:30:58.799,1773937858799,1773937858799,-0.859375,0.49121094,-0.1640625,-0.061035156,0.91552734,-0.18310547,0.0,0.0,0.0,109.58313,58.59558,-167.79419
2026-03-20 00:30:58.887,1773937858887,1773937858887,-0.85839844,0.4868164,-0.1772461,0.48828125,0.0,0.12207031,0.0,0.0,0.0,109.58313,58.59558,-167.79419
2026-03-20 00:30:58.899,1773937858899,1773937858899,-0.85839844,0.4868164,-0.1772461,0.48828125,0.0,0.12207031,0.0,0.0,0.0,109.57764,58.59558,-167.83264
2026-03-20 00:30:58.987,1773937858987,1773937858987,-0.86035156,0.49023438,-0.16455078,-0.24414062,-0.30517578,0.061035156,0.0,0.0,0.0,109.57764,58.59558,-167.83264
2026-03-20 00:30:58.998,1773937858998,1773937858998,-0.86035156,0.49023438,-0.16455078,-0.24414062,-0.30517578,0.061035156,0.0,0.0,0.0,109.68201,58.584595,-167.75024
2026-03-20 00:30:59.086,1773937859086,1773937859086,-0.85791016,0.49072266,-0.17480469,0.48828125,0.7324219,0.0,0.0,0.0,0.0,109.68201,58.584595,-167.75024
2026-03-20 00:30:59.098,1773937859098,1773937859098,-0.85791016,0.49072266,-0.17480469,0.48828125,0.7324219,0.0,0.0,0.0,0.0,109.67102,58.584595,-167.77222
2026-03-20 00:30:59.186,1773937859186,1773937859186,-0.8588867,0.48876953,-0.1743164,0.24414062,-0.24414062,0.0,0.0,0.0,0.0,109.67102,58.584595,-167.77222
2026-03-20 00:30:59.198,1773937859198,1773937859198,-0.8588867,0.48876953,-0.1743164,0.24414062,-0.24414062,0.0,0.0,0.0,0.0,109.764404,58.57361,-167.67334
2026-03-20 00:30:59.286,1773937859286,1773937859286,-0.8598633,0.49023438,-0.16894531,0.12207031,-0.061035156,0.0,0.0,0.0,0.0,109.764404,58.57361,-167.67334
2026-03-20 00:30:59.298,1773937859298,1773937859298,-0.8598633,0.49023438,-0.16894531,0.12207031,-0.061035156,0.0,0.0,0.0,0.0,109.80286,58.5791,-167.69531
2026-03-20 00:30:59.386,1773937859386,1773937859386,-0.86083984,0.49121094,-0.17333984,1.5258789,-0.8544922,0.48828125,0.0,0.0,0.0,109.80286,58.5791,-167.69531
2026-03-20 00:30:59.397,1773937859397,1773937859397,-0.86083984,0.49121094,-0.17333984,1.5258789,-0.8544922,0.48828125,0.0,0.0,0.0,109.69849,58.590088,-167.88208
2026-03-20 00:30:59.485,1773937859485,1773937859485,-0.859375,0.49560547,-0.15576172,-0.6713867,-6.286621,1.0986328,0.0,0.0,0.0,109.69849,58.590088,-167.88208
2026-03-20 00:30:59.497,1773937859497,1773937859497,-0.859375,0.49560547,-0.15576172,-0.6713867,-6.286621,1.0986328,0.0,0.0,0.0,109.13818,58.623047,-168.54675
2026-03-20 00:30:59.585,1773937859585,1773937859585,-0.85839844,0.48828125,-0.16845703,-0.18310547,-0.12207031,0.061035156,0.0,0.0,0.0,109.13818,58.623047,-168.54675
2026-03-20 00:30:59.597,1773937859597,1773937859597,-0.85839844,0.48828125,-0.16845703,-0.18310547,-0.12207031,0.061035156,0.0,0.0,0.0,108.583374,58.639526,-169.0741
2026-03-20 00:30:59.685,1773937859685,1773937859685,-0.8588867,0.49023438,-0.16796875,-0.061035156,-2.0751953,0.18310547,0.0,0.0,0.0,108.583374,58.639526,-169.0741
2026-03-20 00:30:59.696,1773937859696,1773937859696,-0.8588867,0.49023438,-0.16796875,-0.061035156,-2.0751953,0.18310547,0.0,0.0,0.0,108.37463,58.672485,-169.25537
2026-03-20 00:30:59.784,1773937859784,1773937859784,-0.859375,0.49169922,-0.15429688,-0.91552734,0.12207031,-0.30517578,0.0,0.0,0.0,108.37463,58.672485,-169.25537
2026-03-20 00:30:59.796,1773937859796,1773937859796,-0.859375,0.49169922,-0.15429688,-0.91552734,0.12207031,-0.30517578,0.0,0.0,0.0,108.45703,58.694458,-169.10706
2026-03-20 00:30:59.884,1773937859884,1773937859884,-0.86328125,0.4951172,-0.1538086,-0.4272461,0.12207031,0.061035156,0.0,0.0,0.0,108.45703,58.694458,-169.10706
2026-03-20 00:30:59.896,1773937859896,1773937859896,-0.86328125,0.4951172,-0.1538086,-0.4272461,0.12207031,0.061035156,0.0,0.0,0.0,108.358154,58.71643,-169.18396
2026-03-20 00:30:59.984,1773937859984,1773937859984,-0.85839844,0.49072266,-0.16113281,-0.48828125,-0.8544922,0.24414062,0.0,0.0,0.0,108.358154,58.71643,-169.18396
2026-03-20 00:30:59.996,1773937859996,1773937859996,-0.85839844,0.49072266,-0.16113281,-0.48828125,-0.8544922,0.24414062,0.0,0.0,0.0,108.13843,58.73291,-169.33777
2026-03-20 00:31:00.084,1773937860084,1773937860084,-0.86035156,0.4921875,-0.15429688,-0.48828125,-0.36621094,0.18310547,0.0,0.0,0.0,108.13843,58.73291,-169.33777
2026-03-20 00:31:00.095,1773937860095,1773937860095,-0.86035156,0.4921875,-0.15429688,-0.48828125,-0.36621094,0.18310547,0.0,0.0,0.0,108.07251,58.721924,-169.36523
2026-03-20 00:31:00.183,1773937860183,1773937860183,-0.86035156,0.49267578,-0.15527344,-0.30517578,-0.4272461,0.12207031,0.0,0.0,0.0,108.07251,58.721924,-169.36523
2026-03-20 00:31:00.195,1773937860195,1773937860195,-0.86035156,0.49267578,-0.15527344,-0.30517578,-0.4272461,0.12207031,0.0,0.0,0.0,107.96265,58.721924,-169.44214
2026-03-20 00:31:00.283,1773937860283,1773937860283,-0.8588867,0.4897461,-0.15673828,-0.61035156,0.0,0.061035156,0.0,0.0,0.0,107.96265,58.721924,-169.44214
2026-03-20 00:31:00.295,1773937860295,1773937860295,-0.8588867,0.4897461,-0.15673828,-0.61035156,0.0,0.061035156,0.0,0.0,0.0,107.85828,58.721924,-169.50806
2026-03-20 00:31:00.383,1773937860383,1773937860383,-0.85839844,0.49316406,-0.15429688,-0.48828125,1.159668,0.0,0.0,0.0,0.0,107.85828,58.721924,-169.50806
2026-03-20 00:31:00.394,1773937860394,1773937860394,-0.85839844,0.49316406,-0.15429688,-0.48828125,1.159668,0.0,0.0,0.0,0.0,107.95715,58.69995,-169.37073
2026-03-20 00:31:00.483,1773937860483,1773937860483,-0.86035156,0.4892578,-0.16210938,-0.18310547,0.91552734,0.0,0.0,0.0,0.0,107.95715,58.69995,-169.37073
2026-03-20 00:31:00.495,1773937860495,1773937860495,-0.86035156,0.4892578,-0.16210938,-0.18310547,0.91552734,0.0,0.0,0.0,0.0,108.1604,58.666992,-169.13452
2026-03-20 00:31:00.582,1773937860582,1773937860582,-0.8569336,0.4921875,-0.15185547,-0.48828125,0.5493164,0.0,0.0,0.0,0.0,108.1604,58.666992,-169.13452
2026-03-20 00:31:00.594,1773937860594,1773937860594,-0.8569336,0.4921875,-0.15185547,-0.48828125,0.5493164,0.0,0.0,0.0,0.0,108.27026,58.666992,-169.01367
2026-03-20 00:31:00.682,1773937860682,1773937860682,-0.8588867,0.49365234,-0.15771484,0.79345703,2.4414062,-0.24414062,0.0,0.0,0.0,108.27026,58.666992,-169.01367
2026-03-20 00:31:00.693,1773937860693,1773937860693,-0.8588867,0.49365234,-0.15771484,0.79345703,2.4414062,-0.24414062,0.0,0.0,0.0,108.479004,58.656006,-168.81592
2026-03-20 00:31:00.782,1773937860782,1773937860782,-0.85791016,0.49169922,-0.16796875,0.36621094,0.5493164,0.0,0.0,0.0,0.0,108.479004,58.656006,-168.81592
2026-03-20 00:31:00.794,1773937860794,1773937860794,-0.85791016,0.49169922,-0.16796875,0.36621094,0.5493164,0.0,0.0,0.0,0.0,108.73718,58.62854,-168.57422
2026-03-20 00:31:00.881,1773937860881,1773937860881,-0.8618164,0.49365234,-0.1586914,0.12207031,0.4272461,0.0,0.0,0.0,0.0,108.73718,58.62854,-168.57422
2026-03-20 00:31:00.893,1773937860893,1773937860893,-0.8618164,0.49365234,-0.1586914,0.12207031,0.4272461,0.0,0.0,0.0,0.0,108.93494,58.601074,-168.38745
2026-03-20 00:31:00.981,1773937860981,1773937860981,-0.8588867,0.4897461,-0.16845703,-0.12207031,0.91552734,-0.30517578,0.0,0.0,0.0,108.93494,58.601074,-168.38745
2026-03-20 00:31:00.993,1773937860993,1773937860993,-0.8588867,0.4897461,-0.16845703,-0.12207031,0.91552734,-0.30517578,0.0,0.0,0.0,108.98987,58.59558,-168.33801
2026-03-20 00:31:01.081,1773937861081,1773937861081,-0.8588867,0.49121094,-0.16552734,0.0,0.4272461,-0.24414062,0.0,0.0,0.0,108.98987,58.59558,-168.33801
2026-03-20 00:31:01.092,1773937861092,1773937861092,-0.8588867,0.49121094,-0.16552734,0.0,0.4272461,-0.24414062,0.0,0.0,0.0,109.121704,58.59558,-168.20068
2026-03-20 00:31:01.180,1773937861180,1773937861180,-0.859375,0.4921875,-0.16601562,0.0,0.4272461,-0.12207031,0.0,0.0,0.0,109.121704,58.59558,-168.20068
2026-03-20 00:31:01.192,1773937861192,1773937861192,-0.859375,0.4921875,-0.16601562,0.0,0.4272461,-0.12207031,0.0,0.0,0.0,109.23706,58.59558,-168.09082
2026-03-20 00:31:01.280,1773937861280,1773937861280,-0.8598633,0.49023438,-0.16748047,0.0,0.0,0.0,0.0,0.0,0.0,109.23706,58.59558,-168.09082
2026-03-20 00:31:01.292,1773937861292,1773937861292,-0.8598633,0.49023438,-0.16748047,0.0,0.0,0.0,0.0,0.0,0.0,109.281006,58.601074,-168.03589
2026-03-20 00:31:01.380,1773937861380,1773937861380,-0.8588867,0.4868164,-0.171875,0.0,0.30517578,-0.24414062,0.0,0.0,0.0,109.281006,58.601074,-168.03589
2026-03-20 00:31:01.391,1773937861391,1773937861391,-0.8588867,0.4868164,-0.171875,0.0,0.30517578,-0.24414062,0.0,0.0,0.0,109.30847,58.601074,-167.96448
2026-03-20 00:31:01.479,1773937861479,1773937861479,-0.8618164,0.48583984,-0.17675781,0.061035156,-0.4272461,0.0,0.0,0.0,0.0,109.30847,58.601074,-167.96448
2026-03-20 00:31:01.491,1773937861491,1773937861491,-0.8618164,0.48583984,-0.17675781,0.061035156,-0.4272461,0.0,0.0,0.0,0.0,109.32495,58.59558,-167.93701
2026-03-20 00:31:01.579,1773937861579,1773937861579,-0.8613281,0.49023438,-0.16308594,-0.12207031,-0.061035156,0.0,0.0,0.0,0.0,109.32495,58.59558,-167.93701
2026-03-20 00:31:01.591,1773937861591,1773937861591,-0.8613281,0.49023438,-0.16308594,-0.12207031,-0.061035156,0.0,0.0,0.0,0.0,109.555664,58.584595,-167.74475
2026-03-20 00:31:01.679,1773937861679,1773937861679,-0.859375,0.49169922,-0.171875,0.36621094,1.7089844,-0.12207031,0.0,0.0,0.0,109.555664,58.584595,-167.74475
2026-03-20 00:31:01.690,1773937861690,1773937861690,-0.859375,0.49169922,-0.171875,0.36621094,1.7089844,-0.12207031,0.0,0.0,0.0,109.555664,58.584595,-167.7832
2026-03-20 00:31:01.779,1773937861779,1773937861779,-0.8588867,0.4897461,-0.1772461,0.36621094,-0.36621094,0.24414062,0.0,0.0,0.0,109.555664,58.584595,-167.7832
2026-03-20 00:31:01.790,1773937861790,1773937861790,-0.8588867,0.4897461,-0.1772461,0.36621094,-0.36621094,0.24414062,0.0,0.0,0.0,109.643555,58.57361,-167.71179
2026-03-20 00:31:01.878,1773937861878,1773937861878,-0.8598633,0.49023438,-0.16455078,0.24414062,0.0,0.0,0.0,0.0,0.0,109.643555,58.57361,-167.71179
2026-03-20 00:31:01.890,1773937861890,1773937861890,-0.8598633,0.49023438,-0.16455078,0.24414062,0.0,0.0,0.0,0.0,0.0,109.75891,58.55713,-167.64038
2026-03-20 00:31:01.978,1773937861978,1773937861978,-0.8588867,0.49072266,-0.17822266,0.79345703,-0.061035156,0.0,0.0,0.0,0.0,109.75891,58.55713,-167.64038
2026-03-20 00:31:01.990,1773937861990,1773937861990,-0.8588867,0.49072266,-0.17822266,0.79345703,-0.061035156,0.0,0.0,0.0,0.0,109.69849,58.5791,-167.73926
2026-03-20 00:31:02.078,1773937862078,1773937862078,-0.86376953,0.49072266,-0.15722656,0.0,-3.90625,0.6713867,0.0,0.0,0.0,109.69849,58.5791,-167.73926
2026-03-20 00:31:02.089,1773937862089,1773937862089,-0.86376953,0.49072266,-0.15722656,0.0,-3.90625,0.6713867,0.0,0.0,0.0,109.555664,58.606567,-167.95898
2026-03-20 00:31:02.177,1773937862177,1773937862177,-0.85498047,0.48828125,-0.17138672,-0.6713867,-1.0375977,0.30517578,0.0,0.0,0.0,109.555664,58.606567,-167.95898
2026-03-20 00:31:02.189,1773937862189,1773937862189,-0.85498047,0.48828125,-0.17138672,-0.6713867,-1.0375977,0.30517578,0.0,0.0,0.0,109.000854,58.634033,-168.53577
2026-03-20 00:31:02.277,1773937862277,1773937862277,-0.859375,0.49169922,-0.16259766,0.0,-0.91552734,0.24414062,0.0,0.0,0.0,109.000854,58.634033,-168.53577
2026-03-20 00:31:02.289,1773937862289,1773937862289,-0.859375,0.49169922,-0.16259766,0.0,-0.91552734,0.24414062,0.0,0.0,0.0,108.81409,58.64502,-168.71704
2026-03-20 00:31:02.377,1773937862377,1773937862377,-0.8569336,0.49169922,-0.16210938,-0.8544922,0.36621094,-0.12207031,0.0,0.0,0.0,108.81409,58.64502,-168.71704
2026-03-20 00:31:02.389,1773937862389,1773937862389,-0.8569336,0.49169922,-0.16210938,-0.8544922,0.36621094,-0.12207031,0.0,0.0,0.0,108.73169,58.656006,-168.75
2026-03-20 00:31:02.477,1773937862477,1773937862477,-0.85791016,0.4951172,-0.15527344,0.0,-0.5493164,-0.061035156,0.0,0.0,0.0,108.73169,58.656006,-168.75
2026-03-20 00:31:02.489,1773937862489,1773937862489,-0.85791016,0.4951172,-0.15527344,0.0,-0.5493164,-0.061035156,0.0,0.0,0.0,108.63281,58.67798,-168.82141
2026-03-20 00:31:02.576,1773937862576,1773937862576,-0.8588867,0.4892578,-0.1694336,0.0,-1.3427734,0.18310547,0.0,0.0,0.0,108.63281,58.67798,-168.82141
2026-03-20 00:31:02.588,1773937862588,1773937862588,-0.8588867,0.4892578,-0.1694336,0.0,-1.3427734,0.18310547,0.0,0.0,0.0,108.39111,58.69995,-169.01917
2026-03-20 00:31:02.676,1773937862676,1773937862676,-0.8569336,0.4897461,-0.15429688,-0.9765625,-0.4272461,0.061035156,0.0,0.0,0.0,108.39111,58.69995,-169.01917
2026-03-20 00:31:02.687,1773937862687,1773937862687,-0.8569336,0.4897461,-0.15429688,-0.9765625,-0.4272461,0.061035156,0.0,0.0,0.0,108.39111,58.694458,-169.00269
2026-03-20 00:31:02.776,1773937862776,1773937862776,-0.8613281,0.49609375,-0.1508789,-0.36621094,0.12207031,0.0,0.0,0.0,0.0,108.39111,58.694458,-169.00269
2026-03-20 00:31:02.787,1773937862787,1773937862787,-0.8613281,0.49609375,-0.1508789,-0.36621094,0.12207031,0.0,0.0,0.0,0.0,108.25928,58.705444,-169.12903
2026-03-20 00:31:02.875,1773937862875,1773937862875,-0.8574219,0.4897461,-0.16503906,-0.24414062,0.61035156,0.0,0.0,0.0,0.0,108.25928,58.705444,-169.12903
2026-03-20 00:31:02.887,1773937862887,1773937862887,-0.8574219,0.4897461,-0.16503906,-0.24414062,0.61035156,0.0,0.0,0.0,0.0,108.21533,58.69995,-169.11255
2026-03-20 00:31:02.975,1773937862975,1773937862975,-0.8598633,0.49072266,-0.15966797,-0.4272461,1.4648438,0.0,0.0,0.0,0.0,108.21533,58.69995,-169.11255
2026-03-20 00:31:02.986,1773937862986,1773937862986,-0.8598633,0.49072266,-0.15966797,-0.4272461,1.4648438,0.0,0.0,0.0,0.0,108.39111,58.672485,-168.9148
2026-03-20 00:31:03.075,1773937863075,1773937863075,-0.86083984,0.49267578,-0.16308594,0.12207031,1.2207031,0.0,0.0,0.0,0.0,108.39111,58.672485,-168.9148
2026-03-20 00:31:03.086,1773937863086,1773937863086,-0.86083984,0.49267578,-0.16308594,0.12207031,1.2207031,0.0,0.0,0.0,0.0,108.566895,58.639526,-168.71704
2026-03-20 00:31:03.175,1773937863175,1773937863175,-0.8569336,0.48876953,-0.16796875,0.061035156,1.5258789,-0.30517578,0.0,0.0,0.0,108.566895,58.639526,-168.71704
2026-03-20 00:31:03.186,1773937863186,1773937863186,-0.8569336,0.48876953,-0.16796875,0.061035156,1.5258789,-0.30517578,0.0,0.0,0.0,108.742676,58.617554,-168.53027
2026-03-20 00:31:03.274,1773937863274,1773937863274,-0.8598633,0.49169922,-0.1665039,-0.12207031,2.1362305,-0.5493164,0.0,0.0,0.0,108.742676,58.617554,-168.53027
2026-03-20 00:31:03.286,1773937863286,1773937863286,-0.8598633,0.49169922,-0.1665039,-0.12207031,2.1362305,-0.5493164,0.0,0.0,0.0,109.176636,58.584595,-168.08533
2026-03-20 00:31:03.374,1773937863374,1773937863374,-0.8623047,0.4873047,-0.16845703,0.6713867,-0.12207031,0.061035156,0.0,0.0,0.0,109.176636,58.584595,-168.08533
2026-03-20 00:31:03.385,1773937863385,1773937863385,-0.8623047,0.4873047,-0.16845703,0.6713867,-0.12207031,0.061035156,0.0,0.0,0.0,109.37439,58.568115,-167.92603
2026-03-20 00:31:03.474,1773937863474,1773937863474,-0.8598633,0.49316406,-0.1586914,-0.4272461,1.0986328,-0.12207031,0.0,0.0,0.0,109.37439,58.568115,-167.92603
2026-03-20 00:31:03.485,1773937863485,1773937863485,-0.8598633,0.49316406,-0.1586914,-0.4272461,1.0986328,-0.12207031,0.0,0.0,0.0,109.489746,58.57361,-167.83264
2026-03-20 00:31:03.573,1773937863573,1773937863573,-0.85595703,0.4892578,-0.17529297,0.4272461,1.0375977,-0.18310547,0.0,0.0,0.0,109.489746,58.57361,-167.83264
2026-03-20 00:31:03.585,1773937863585,1773937863585,-0.85595703,0.4892578,-0.17529297,0.4272461,1.0375977,-0.18310547,0.0,0.0,0.0,109.4458,58.590088,-167.89856
2026-03-20 00:31:03.673,1773937863673,1773937863673,-0.8588867,0.4897461,-0.17041016,-0.061035156,-0.6713867,-0.061035156,0.0,0.0,0.0,109.4458,58.590088,-167.89856
2026-03-20 00:31:03.685,1773937863685,1773937863685,-0.8588867,0.4897461,-0.17041016,-0.061035156,-0.6713867,-0.061035156,0.0,0.0,0.0,109.610596,58.584595,-167.74475
2026-03-20 00:31:03.773,1773937863773,1773937863773,-0.86083984,0.4921875,-0.16601562,-0.18310547,1.0375977,-0.24414062,0.0,0.0,0.0,109.610596,58.584595,-167.74475
2026-03-20 00:31:03.784,1773937863784,1773937863784,-0.86083984,0.4921875,-0.16601562,-0.18310547,1.0375977,-0.24414062,0.0,0.0,0.0,109.70947,58.584595,-167.65686
2026-03-20 00:31:03.872,1773937863872,1773937863872,-0.85839844,0.48583984,-0.18017578,-0.061035156,0.24414062,-0.12207031,0.0,0.0,0.0,109.70947,58.584595,-167.65686
2026-03-20 00:31:03.884,1773937863884,1773937863884,-0.85839844,0.48583984,-0.18017578,-0.061035156,0.24414062,-0.12207031,0.0,0.0,0.0,109.68201,58.59558,-167.68433
2026-03-20 00:31:03.972,1773937863972,1773937863972,-0.86035156,0.48876953,-0.16894531,-0.18310547,0.9765625,-0.061035156,0.0,0.0,0.0,109.68201,58.59558,-167.68433
2026-03-20 00:31:03.984,1773937863984,1773937863984,-0.86035156,0.48876953,-0.16894531,-0.18310547,0.9765625,-0.061035156,0.0,0.0,0.0,109.87427,58.584595,-167.47559
2026-03-20 00:31:04.072,1773937864072,1773937864072,-0.8588867,0.48876953,-0.17333984,0.0,1.159668,-0.061035156,0.0,0.0,0.0,109.87427,58.584595,-167.47559
2026-03-20 00:31:04.084,1773937864084,1773937864084,-0.8588867,0.48876953,-0.17333984,0.0,1.159668,-0.061035156,0.0,0.0,0.0,109.96765,58.57361,-167.39319
2026-03-20 00:31:04.171,1773937864171,1773937864171,-0.8588867,0.48779297,-0.17529297,0.36621094,-0.18310547,0.0,0.0,0.0,0.0,109.96765,58.57361,-167.39319
2026-03-20 00:31:04.183,1773937864183,1773937864183,-0.8588867,0.48779297,-0.17529297,0.36621094,-0.18310547,0.0,0.0,0.0,0.0,110.03906,58.562622,-167.33826
2026-03-20 00:31:04.272,1773937864272,1773937864272,-0.85839844,0.4921875,-0.17871094,1.7089844,-0.36621094,0.12207031,0.0,0.0,0.0,110.03906,58.562622,-167.33826
2026-03-20 00:31:04.283,1773937864283,1773937864283,-0.85839844,0.4921875,-0.17871094,1.7089844,-0.36621094,0.12207031,0.0,0.0,0.0,110.11597,58.562622,-167.2998
2026-03-20 00:31:04.371,1773937864371,1773937864371,-0.86279297,0.48828125,-0.17089844,-0.061035156,-4.272461,0.9765625,0.0,0.0,0.0,110.11597,58.562622,-167.2998
2026-03-20 00:31:04.382,1773937864382,1773937864382,-0.86279297,0.48828125,-0.17089844,-0.061035156,-4.272461,0.9765625,0.0,0.0,0.0,109.79736,58.568115,-167.73926
2026-03-20 00:31:04.471,1773937864471,1773937864471,-0.85791016,0.48828125,-0.16748047,-0.9765625,-1.7700195,0.48828125,0.0,0.0,0.0,109.79736,58.568115,-167.73926
2026-03-20 00:31:04.482,1773937864482,1773937864482,-0.85791016,0.48828125,-0.16748047,-0.9765625,-1.7700195,0.48828125,0.0,0.0,0.0,109.25903,58.590088,-168.29956
2026-03-20 00:31:04.570,1773937864570,1773937864570,-0.859375,0.4897461,-0.16357422,0.061035156,-0.6713867,0.30517578,0.0,0.0,0.0,109.25903,58.590088,-168.29956
2026-03-20 00:31:04.582,1773937864582,1773937864582,-0.859375,0.4897461,-0.16357422,0.061035156,-0.6713867,0.30517578,0.0,0.0,0.0,108.99536,58.617554,-168.56873
2026-03-20 00:31:04.670,1773937864670,1773937864670,-0.86035156,0.49023438,-0.1665039,-0.24414062,-0.5493164,-0.061035156,0.0,0.0,0.0,108.99536,58.617554,-168.56873
2026-03-20 00:31:04.682,1773937864682,1773937864682,-0.86035156,0.49023438,-0.1665039,-0.24414062,-0.5493164,-0.061035156,0.0,0.0,0.0,108.86902,58.639526,-168.6676
2026-03-20 00:31:04.770,1773937864770,1773937864770,-0.8613281,0.49023438,-0.16210938,-0.6713867,-0.61035156,0.12207031,0.0,0.0,0.0,108.86902,58.639526,-168.6676
2026-03-20 00:31:04.781,1773937864781,1773937864781,-0.8613281,0.49023438,-0.16210938,-0.6713867,-0.61035156,0.12207031,0.0,0.0,0.0,108.7262,58.6615,-168.76648
2026-03-20 00:31:04.870,1773937864870,1773937864870,-0.859375,0.4921875,-0.16210938,-0.4272461,-0.48828125,0.12207031,0.0,0.0,0.0,108.7262,58.6615,-168.76648
2026-03-20 00:31:04.881,1773937864881,1773937864881,-0.859375,0.4921875,-0.16210938,-0.4272461,-0.48828125,0.12207031,0.0,0.0,0.0,108.63281,58.656006,-168.8269
2026-03-20 00:31:04.969,1773937864969,1773937864969,-0.8588867,0.4921875,-0.16064453,-0.4272461,-0.8544922,0.12207031,0.0,0.0,0.0,108.63281,58.656006,-168.8269
2026-03-20 00:31:04.981,1773937864981,1773937864981,-0.8588867,0.4921875,-0.16064453,-0.4272461,-0.8544922,0.12207031,0.0,0.0,0.0,108.50647,58.6615,-168.92029
2026-03-20 00:31:05.069,1773937865069,1773937865069,-0.86035156,0.49169922,-0.15917969,-0.9765625,0.24414062,-0.12207031,0.0,0.0,0.0,108.50647,58.6615,-168.92029
2026-03-20 00:31:05.080,1773937865080,1773937865080,-0.86035156,0.49169922,-0.15917969,-0.9765625,0.24414062,-0.12207031,0.0,0.0,0.0,108.429565,58.672485,-168.92578
2026-03-20 00:31:05.169,1773937865169,1773937865169,-0.85839844,0.49023438,-0.16308594,-0.5493164,1.5869141,-0.12207031,0.0,0.0,0.0,108.429565,58.672485,-168.92578
2026-03-20 00:31:05.181,1773937865181,1773937865181,-0.85839844,0.49023438,-0.16308594,-0.5493164,1.5869141,-0.12207031,0.0,0.0,0.0,108.42407,58.6615,-168.89282
2026-03-20 00:31:05.268,1773937865268,1773937865268,-0.8569336,0.48779297,-0.1616211,-0.36621094,0.30517578,0.18310547,0.0,0.0,0.0,108.42407,58.6615,-168.89282
2026-03-20 00:31:05.280,1773937865280,1773937865280,-0.8569336,0.48779297,-0.1616211,-0.36621094,0.30517578,0.18310547,0.0,0.0,0.0,108.61084,58.62854,-168.65662
2026-03-20 00:31:05.368,1773937865368,1773937865368,-0.8544922,0.49023438,-0.14990234,0.0,1.3427734,-0.18310547,0.0,0.0,0.0,108.61084,58.62854,-168.65662
2026-03-20 00:31:05.379,1773937865379,1773937865379,-0.8544922,0.49023438,-0.14990234,0.0,1.3427734,-0.18310547,0.0,0.0,0.0,108.78662,58.61206,-168.48083
2026-03-20 00:31:05.468,1773937865468,1773937865468,-0.8569336,0.49365234,-0.17041016,1.0986328,2.746582,-0.4272461,0.0,0.0,0.0,108.78662,58.61206,-168.48083
2026-03-20 00:31:05.479,1773937865479,1773937865479,-0.8569336,0.49365234,-0.17041016,1.0986328,2.746582,-0.4272461,0.0,0.0,0.0,109.05029,58.59558,-168.21716
2026-03-20 00:31:05.567,1773937865567,1773937865567,-0.8598633,0.49121094,-0.17138672,0.6713867,-0.24414062,0.061035156,0.0,0.0,0.0,109.05029,58.59558,-168.21716
2026-03-20 00:31:05.579,1773937865579,1773937865579,-0.8598633,0.49121094,-0.17138672,0.6713867,-0.24414062,0.061035156,0.0,0.0,0.0,109.41284,58.562622,-167.83813
2026-03-20 00:31:05.667,1773937865667,1773937865667,-0.86279297,0.49267578,-0.16210938,0.061035156,1.159668,-0.12207031,0.0,0.0,0.0,109.41284,58.562622,-167.83813
2026-03-20 00:31:05.679,1773937865679,1773937865679,-0.86279297,0.49267578,-0.16210938,0.061035156,1.159668,-0.12207031,0.0,0.0,0.0,109.57764,58.551636,-167.69531
2026-03-20 00:31:05.767,1773937865767,1773937865767,-0.8569336,0.4892578,-0.1772461,0.061035156,0.4272461,0.0,0.0,0.0,0.0,109.57764,58.551636,-167.69531
2026-03-20 00:31:05.778,1773937865778,1773937865778,-0.8569336,0.4892578,-0.1772461,0.061035156,0.4272461,0.0,0.0,0.0,0.0,109.58862,58.546143,-167.68433
2026-03-20 00:31:05.867,1773937865867,1773937865867,-0.859375,0.4897461,-0.16796875,-0.18310547,0.48828125,-0.18310547,0.0,0.0,0.0,109.58862,58.546143,-167.68433
2026-03-20 00:31:05.878,1773937865878,1773937865878,-0.859375,0.4897461,-0.16796875,-0.18310547,0.48828125,-0.18310547,0.0,0.0,0.0,109.74243,58.529663,-167.51404
2026-03-20 00:31:05.966,1773937865966,1773937865966,-0.85839844,0.4892578,-0.17382812,0.0,0.30517578,-0.12207031,0.0,0.0,0.0,109.74243,58.529663,-167.51404
2026-03-20 00:31:05.978,1773937865978,1773937865978,-0.85839844,0.4892578,-0.17382812,0.0,0.30517578,-0.12207031,0.0,0.0,0.0,109.75342,58.54065,-167.50305
2026-03-20 00:31:06.066,1773937866066,1773937866066,-0.8588867,0.4897461,-0.171875,0.061035156,0.0,0.0,0.0,0.0,0.0,109.75342,58.54065,-167.50305
2026-03-20 00:31:06.078,1773937866078,1773937866078,-0.8588867,0.4897461,-0.171875,0.061035156,0.0,0.0,0.0,0.0,0.0,109.835815,58.535156,-167.41516
2026-03-20 00:31:06.166,1773937866166,1773937866166,-0.8588867,0.48876953,-0.17382812,-0.91552734,1.159668,0.0,0.0,0.0,0.0,109.835815,58.535156,-167.41516
2026-03-20 00:31:06.178,1773937866178,1773937866178,-0.8588867,0.48876953,-0.17382812,-0.91552734,1.159668,0.0,0.0,0.0,0.0,109.885254,58.529663,-167.3822
2026-03-20 00:31:06.265,1773937866265,1773937866265,-0.85839844,0.4873047,-0.17382812,-0.24414062,-0.36621094,0.4272461,0.0,0.0,0.0,109.885254,58.529663,-167.3822
2026-03-20 00:31:06.277,1773937866277,1773937866277,-0.85839844,0.4873047,-0.17382812,-0.24414062,-0.36621094,0.4272461,0.0,0.0,0.0,109.94568,58.50769,-167.34375
2026-03-20 00:31:06.365,1773937866365,1773937866365,-0.86083984,0.49316406,-0.16552734,0.12207031,1.8920898,-0.12207031,0.0,0.0,0.0,109.94568,58.50769,-167.34375
2026-03-20 00:31:06.377,1773937866377,1773937866377,-0.86083984,0.49316406,-0.16552734,0.12207031,1.8920898,-0.12207031,0.0,0.0,0.0,110.03906,58.496704,-167.31079
2026-03-20 00:31:06.465,1773937866465,1773937866465,-0.85498047,0.48876953,-0.18408203,0.0,-0.24414062,0.061035156,0.0,0.0,0.0,110.03906,58.496704,-167.31079
2026-03-20 00:31:06.476,1773937866476,1773937866476,-0.85498047,0.48876953,-0.18408203,0.0,-0.24414062,0.061035156,0.0,0.0,0.0,109.98413,58.496704,-167.39319
2026-03-20 00:31:06.565,1773937866565,1773937866565,-0.86083984,0.49121094,-0.1694336,0.36621094,-0.6713867,0.18310547,0.0,0.0,0.0,109.98413,58.496704,-167.39319
2026-03-20 00:31:06.576,1773937866576,1773937866576,-0.86083984,0.49121094,-0.1694336,0.36621094,-0.6713867,0.18310547,0.0,0.0,0.0,110.12695,58.480225,-167.26685
2026-03-20 00:31:06.664,1773937866664,1773937866664,-0.8642578,0.49609375,-0.17089844,0.0,-0.7324219,0.12207031,0.0,0.0,0.0,110.12695,58.480225,-167.26685
2026-03-20 00:31:06.676,1773937866676,1773937866676,-0.8642578,0.49609375,-0.17089844,0.0,-0.7324219,0.12207031,0.0,0.0,0.0,110.05005,58.49121,-167.42065
2026-03-20 00:31:06.764,1773937866764,1773937866764,-0.8569336,0.49169922,-0.17138672,-2.0751953,-3.540039,0.79345703,0.0,0.0,0.0,110.05005,58.49121,-167.42065
2026-03-20 00:31:06.776,1773937866776,1773937866776,-0.8569336,0.49169922,-0.17138672,-2.0751953,-3.540039,0.79345703,0.0,0.0,0.0,109.31946,58.568115,-168.23914
2026-03-20 00:31:06.864,1773937866864,1773937866864,-0.8598633,0.4868164,-0.15625,-0.7324219,0.0,0.0,0.0,0.0,0.0,109.31946,58.568115,-168.23914
2026-03-20 00:31:06.875,1773937866875,1773937866875,-0.8598633,0.4868164,-0.15625,-0.7324219,0.0,0.0,0.0,0.0,0.0,109.03381,58.57361,-168.49182
2026-03-20 00:31:06.963,1773937866963,1773937866963,-0.8564453,0.4892578,-0.16796875,-0.36621094,-0.7324219,0.12207031,0.0,0.0,0.0,109.03381,58.57361,-168.49182
2026-03-20 00:31:06.975,1773937866975,1773937866975,-0.8564453,0.4892578,-0.16796875,-0.36621094,-0.7324219,0.12207031,0.0,0.0,0.0,108.78113,58.584595,-168.7555
2026-03-20 00:31:07.063,1773937867063,1773937867063,-0.8618164,0.49121094,-0.16308594,-0.061035156,-1.0986328,0.18310547,0.0,0.0,0.0,108.78113,58.584595,-168.7555
2026-03-20 00:31:07.075,1773937867075,1773937867075,-0.8618164,0.49121094,-0.16308594,-0.061035156,-1.0986328,0.18310547,0.0,0.0,0.0,108.73169,58.59558,-168.73901
2026-03-20 00:31:07.163,1773937867163,1773937867163,-0.85839844,0.49121094,-0.16113281,-0.79345703,-0.5493164,0.061035156,0.0,0.0,0.0,108.73169,58.59558,-168.73901
2026-03-20 00:31:07.175,1773937867175,1773937867175,-0.85839844,0.49121094,-0.16113281,-0.79345703,-0.5493164,0.061035156,0.0,0.0,0.0,108.61633,58.606567,-168.81042
2026-03-20 00:31:07.263,1773937867263,1773937867263,-0.85791016,0.49609375,-0.15820312,-0.79345703,0.18310547,0.24414062,0.0,0.0,0.0,108.61633,58.606567,-168.81042
2026-03-20 00:31:07.274,1773937867274,1773937867274,-0.85791016,0.49609375,-0.15820312,-0.79345703,0.18310547,0.24414062,0.0,0.0,0.0,108.52844,58.606567,-168.86536
2026-03-20 00:31:07.362,1773937867362,1773937867362,-0.8569336,0.4946289,-0.1538086,-0.24414062,-1.4648438,0.061035156,0.0,0.0,0.0,108.52844,58.606567,-168.86536
2026-03-20 00:31:07.374,1773937867374,1773937867374,-0.8569336,0.4946289,-0.1538086,-0.24414062,-1.4648438,0.061035156,0.0,0.0,0.0,108.29773,58.62854,-169.06311
2026-03-20 00:31:07.462,1773937867462,1773937867462,-0.8598633,0.49121094,-0.16259766,-0.12207031,-0.7324219,0.0,0.0,0.0,0.0,108.29773,58.62854,-169.06311
2026-03-20 00:31:07.474,1773937867474,1773937867474,-0.8598633,0.49121094,-0.16259766,-0.12207031,-0.7324219,0.0,0.0,0.0,0.0,108.05054,58.656006,-169.24988
2026-03-20 00:31:07.562,1773937867562,1773937867562,-0.85498047,0.4897461,-0.15722656,-0.30517578,0.18310547,0.0,0.0,0.0,0.0,108.05054,58.656006,-169.24988
2026-03-20 00:31:07.574,1773937867574,1773937867574,-0.85498047,0.4897461,-0.15722656,-0.30517578,0.18310547,0.0,0.0,0.0,0.0,108.099976,58.64502,-169.16748
2026-03-20 00:31:07.661,1773937867661,1773937867661,-0.8618164,0.49658203,-0.1508789,0.0,0.91552734,0.0,0.0,0.0,0.0,108.099976,58.64502,-169.16748
2026-03-20 00:31:07.673,1773937867673,1773937867673,-0.8618164,0.49658203,-0.1508789,0.0,0.91552734,0.0,0.0,0.0,0.0,108.33618,58.606567,-168.92578
2026-03-20 00:31:07.761,1773937867761,1773937867761,-0.85546875,0.4921875,-0.17285156,0.5493164,2.6855469,0.0,0.0,0.0,0.0,108.33618,58.606567,-168.92578
2026-03-20 00:31:07.773,1773937867773,1773937867773,-0.85546875,0.4921875,-0.17285156,0.5493164,2.6855469,0.0,0.0,0.0,0.0,108.45154,58.57361,-168.82141
2026-03-20 00:31:07.861,1773937867861,1773937867861,-0.8598633,0.49121094,-0.1616211,0.48828125,1.8310547,-0.24414062,0.0,0.0,0.0,108.45154,58.57361,-168.82141
2026-03-20 00:31:07.872,1773937867872,1773937867872,-0.8598633,0.49121094,-0.1616211,0.48828125,1.8310547,-0.24414062,0.0,0.0,0.0,108.97888,58.518677,-168.28857
2026-03-20 00:31:07.961,1773937867961,1773937867961,-0.86035156,0.49267578,-0.16552734,0.18310547,1.159668,-0.30517578,0.0,0.0,0.0,108.97888,58.518677,-168.28857
2026-03-20 00:31:07.972,1773937867972,1773937867972,-0.86035156,0.49267578,-0.16552734,0.18310547,1.159668,-0.30517578,0.0,0.0,0.0,109.21509,58.496704,-168.1018
2026-03-20 00:31:08.060,1773937868060,1773937868060,-0.8569336,0.49316406,-0.16748047,0.12207031,0.061035156,0.0,0.0,0.0,0.0,109.21509,58.496704,-168.1018
2026-03-20 00:31:08.072,1773937868072,1773937868072,-0.8569336,0.49316406,-0.16748047,0.12207031,0.061035156,0.0,0.0,0.0,0.0,109.31946,58.49121,-167.99744
2026-03-20 00:31:08.160,1773937868160,1773937868160,-0.85791016,0.49023438,-0.1694336,0.36621094,0.5493164,0.0,0.0,0.0,0.0,109.31946,58.49121,-167.99744
2026-03-20 00:31:08.171,1773937868171,1773937868171,-0.85791016,0.49023438,-0.1694336,0.36621094,0.5493164,0.0,0.0,0.0,0.0,109.401855,58.480225,-167.92053
2026-03-20 00:31:08.260,1773937868260,1773937868260,-0.85595703,0.49658203,-0.16796875,-0.18310547,0.61035156,0.061035156,0.0,0.0,0.0,109.401855,58.480225,-167.92053
2026-03-20 00:31:08.271,1773937868271,1773937868271,-0.85595703,0.49658203,-0.16796875,-0.18310547,0.61035156,0.061035156,0.0,0.0,0.0,109.50073,58.46924,-167.79419
2026-03-20 00:31:08.359,1773937868359,1773937868359,-0.8574219,0.49316406,-0.171875,0.6713867,0.8544922,-0.48828125,0.0,0.0,0.0,109.50073,58.46924,-167.79419
2026-03-20 00:31:08.371,1773937868371,1773937868371,-0.8574219,0.49316406,-0.171875,0.6713867,0.8544922,-0.48828125,0.0,0.0,0.0,109.54468,58.480225,-167.77222
2026-03-20 00:31:08.459,1773937868459,1773937868459,-0.85546875,0.48779297,-0.1772461,0.12207031,-0.8544922,-0.061035156,0.0,0.0,0.0,109.54468,58.480225,-167.77222
2026-03-20 00:31:08.471,1773937868471,1773937868471,-0.85546875,0.48779297,-0.1772461,0.12207031,-0.8544922,-0.061035156,0.0,0.0,0.0,109.58313,58.496704,-167.73376
2026-03-20 00:31:08.559,1773937868559,1773937868559,-0.8598633,0.4921875,-0.16552734,0.12207031,0.91552734,-0.18310547,0.0,0.0,0.0,109.58313,58.496704,-167.73376
2026-03-20 00:31:08.570,1773937868570,1773937868570,-0.8598633,0.4921875,-0.16552734,0.12207031,0.91552734,-0.18310547,0.0,0.0,0.0,109.764404,58.49121,-167.57996
2026-03-20 00:31:08.659,1773937868659,1773937868659,-0.85791016,0.48876953,-0.17773438,0.36621094,0.61035156,-0.061035156,0.0,0.0,0.0,109.764404,58.49121,-167.57996
2026-03-20 00:31:08.670,1773937868670,1773937868670,-0.85791016,0.48876953,-0.17773438,0.36621094,0.61035156,-0.061035156,0.0,0.0,0.0,109.7699,58.49121,-167.61292
2026-03-20 00:31:08.758,1773937868758,1773937868758,-0.8588867,0.48876953,-0.17041016,-0.30517578,-0.30517578,0.0,0.0,0.0,0.0,109.7699,58.49121,-167.61292
2026-03-20 00:31:08.770,1773937868770,1773937868770,-0.8588867,0.48876953,-0.17041016,-0.30517578,-0.30517578,0.0,0.0,0.0,0.0,109.85779,58.485718,-167.52502
2026-03-20 00:31:08.858,1773937868858,1773937868858,-0.8564453,0.4921875,-0.17333984,0.48828125,1.0375977,-0.18310547,0.0,0.0,0.0,109.85779,58.485718,-167.52502
2026-03-20 00:31:08.870,1773937868870,1773937868870,-0.8564453,0.4921875,-0.17333984,0.48828125,1.0375977,-0.18310547,0.0,0.0,0.0,109.96216,58.480225,-167.44263
2026-03-20 00:31:08.958,1773937868958,1773937868958,-0.8598633,0.49072266,-0.17871094,1.0375977,-0.24414062,0.12207031,0.0,0.0,0.0,109.96216,58.480225,-167.44263
2026-03-20 00:31:08.969,1773937868969,1773937868969,-0.8598633,0.49072266,-0.17871094,1.0375977,-0.24414062,0.12207031,0.0,0.0,0.0,110.05554,58.47473,-167.3822
2026-03-20 00:31:09.057,1773937869057,1773937869057,-0.8647461,0.48876953,-0.15771484,0.6713867,-5.065918,0.8544922,0.0,0.0,0.0,110.05554,58.47473,-167.3822
2026-03-20 00:31:09.069,1773937869069,1773937869069,-0.8647461,0.48876953,-0.15771484,0.6713867,-5.065918,0.8544922,0.0,0.0,0.0,109.923706,58.480225,-167.66235
2026-03-20 00:31:09.157,1773937869157,1773937869157,-0.8520508,0.48779297,-0.18310547,-0.4272461,-3.0517578,0.91552734,0.0,0.0,0.0,109.923706,58.480225,-167.66235
2026-03-20 00:31:09.169,1773937869169,1773937869169,-0.8520508,0.48779297,-0.18310547,-0.4272461,-3.0517578,0.91552734,0.0,0.0,0.0,109.072266,58.49121,-168.60168
2026-03-20 00:31:09.257,1773937869257,1773937869257,-0.859375,0.49609375,-0.16015625,0.91552734,-1.8310547,0.48828125,0.0,0.0,0.0,109.072266,58.49121,-168.60168
2026-03-20 00:31:09.269,1773937869269,1773937869269,-0.859375,0.49609375,-0.16015625,0.91552734,-1.8310547,0.48828125,0.0,0.0,0.0,109.02283,58.496704,-168.63464
2026-03-20 00:31:09.357,1773937869357,1773937869357,-0.86279297,0.4897461,-0.17773438,-1.3427734,-0.12207031,-0.48828125,0.0,0.0,0.0,109.02283,58.496704,-168.63464
2026-03-20 00:31:09.368,1773937869368,1773937869368,-0.86279297,0.4897461,-0.17773438,-1.3427734,-0.12207031,-0.48828125,0.0,0.0,0.0,108.78662,58.518677,-168.82141
2026-03-20 00:31:09.456,1773937869456,1773937869456,-0.86035156,0.49316406,-0.16113281,-1.8310547,-1.2207031,0.0,0.0,0.0,0.0,108.78662,58.518677,-168.82141
2026-03-20 00:31:09.468,1773937869468,1773937869468,-0.86035156,0.49316406,-0.16113281,-1.8310547,-1.2207031,0.0,0.0,0.0,0.0,108.64929,58.55713,-168.9148
2026-03-20 00:31:09.556,1773937869556,1773937869556,-0.85839844,0.4946289,-0.15576172,-0.5493164,0.7324219,0.061035156,0.0,0.0,0.0,108.64929,58.55713,-168.9148
2026-03-20 00:31:09.568,1773937869568,1773937869568,-0.85839844,0.4946289,-0.15576172,-0.5493164,0.7324219,0.061035156,0.0,0.0,0.0,108.50098,58.5791,-169.02466
2026-03-20 00:31:09.656,1773937869656,1773937869656,-0.85839844,0.49121094,-0.16845703,0.0,-0.5493164,0.24414062,0.0,0.0,0.0,108.50098,58.5791,-169.02466
2026-03-20 00:31:09.668,1773937869668,1773937869668,-0.85839844,0.49121094,-0.16845703,0.0,-0.5493164,0.24414062,0.0,0.0,0.0,108.341675,58.57361,-169.16199
2026-03-20 00:31:09.755,1773937869755,1773937869755,-0.8569336,0.49023438,-0.15722656,-1.4648438,-0.9765625,0.0,0.0,0.0,0.0,108.341675,58.57361,-169.16199
2026-03-20 00:31:09.768,1773937869768,1773937869768,-0.8569336,0.49023438,-0.15722656,-1.4648438,-0.9765625,0.0,0.0,0.0,0.0,108.2428,58.5791,-169.17297
2026-03-20 00:31:09.855,1773937869855,1773937869855,-0.85791016,0.4951172,-0.15527344,-0.9765625,0.79345703,-0.30517578,0.0,0.0,0.0,108.2428,58.5791,-169.17297
2026-03-20 00:31:09.867,1773937869867,1773937869867,-0.85791016,0.4951172,-0.15527344,-0.9765625,0.79345703,-0.30517578,0.0,0.0,0.0,108.12744,58.606567,-169.22241
2026-03-20 00:31:09.955,1773937869955,1773937869955,-0.8574219,0.49414062,-0.16259766,-0.12207031,2.5024414,-0.24414062,0.0,0.0,0.0,108.12744,58.606567,-169.22241
2026-03-20 00:31:09.966,1773937869966,1773937869966,-0.8574219,0.49414062,-0.16259766,-0.12207031,2.5024414,-0.24414062,0.0,0.0,0.0,108.26477,58.590088,-169.03015
2026-03-20 00:31:10.055,1773937870055,1773937870055,-0.8574219,0.4921875,-0.16210938,0.30517578,0.12207031,0.12207031,0.0,0.0,0.0,108.26477,58.590088,-169.03015
2026-03-20 00:31:10.066,1773937870066,1773937870066,-0.8574219,0.4921875,-0.16210938,0.30517578,0.12207031,0.12207031,0.0,0.0,0.0,108.4021,58.57361,-168.86536
2026-03-20 00:31:10.154,1773937870154,1773937870154,-0.8588867,0.49121094,-0.15917969,0.12207031,-0.12207031,0.0,0.0,0.0,0.0,108.4021,58.57361,-168.86536
2026-03-20 00:31:10.166,1773937870166,1773937870166,-0.8588867,0.49121094,-0.15917969,0.12207031,-0.12207031,0.0,0.0,0.0,0.0,108.53943,58.55713,-168.69507
2026-03-20 00:31:10.254,1773937870254,1773937870254,-0.8564453,0.48828125,-0.16015625,0.24414062,1.0986328,-0.30517578,0.0,0.0,0.0,108.53943,58.55713,-168.69507
2026-03-20 00:31:10.265,1773937870265,1773937870265,-0.8564453,0.48828125,-0.16015625,0.24414062,1.0986328,-0.30517578,0.0,0.0,0.0,108.61633,58.551636,-168.61267
2026-03-20 00:31:10.354,1773937870354,1773937870354,-0.8618164,0.49072266,-0.17382812,0.48828125,1.8310547,-0.30517578,0.0,0.0,0.0,108.61633,58.551636,-168.61267
2026-03-20 00:31:10.365,1773937870365,1773937870365,-0.8618164,0.49072266,-0.17382812,0.48828125,1.8310547,-0.30517578,0.0,0.0,0.0,108.896484,58.529663,-168.33252
2026-03-20 00:31:10.453,1773937870453,1773937870453,-0.8613281,0.49023438,-0.16503906,0.0,0.0,0.0,0.0,0.0,0.0,108.896484,58.529663,-168.33252
2026-03-20 00:31:10.465,1773937870465,1773937870465,-0.8613281,0.49023438,-0.16503906,0.0,0.0,0.0,0.0,0.0,0.0,109.25903,58.502197,-167.99194
2026-03-20 00:31:10.553,1773937870553,1773937870553,-0.86083984,0.49316406,-0.16357422,0.12207031,1.7700195,-0.24414062,0.0,0.0,0.0,109.25903,58.502197,-167.99194
2026-03-20 00:31:10.565,1773937870565,1773937870565,-0.86083984,0.49316406,-0.16357422,0.12207031,1.7700195,-0.24414062,0.0,0.0,0.0,109.34143,58.502197,-167.948
2026-03-20 00:31:10.653,1773937870653,1773937870653,-0.8564453,0.49072266,-0.17578125,0.18310547,-0.061035156,0.0,0.0,0.0,0.0,109.34143,58.502197,-167.948
2026-03-20 00:31:10.664,1773937870664,1773937870664,-0.8564453,0.49072266,-0.17578125,0.18310547,-0.061035156,0.0,0.0,0.0,0.0,109.37439,58.502197,-167.92603
2026-03-20 00:31:10.752,1773937870752,1773937870752,-0.8588867,0.4921875,-0.16552734,0.61035156,0.30517578,0.061035156,0.0,0.0,0.0,109.37439,58.502197,-167.92603
2026-03-20 00:31:10.764,1773937870764,1773937870764,-0.8588867,0.4921875,-0.16552734,0.61035156,0.30517578,0.061035156,0.0,0.0,0.0,109.5282,58.485718,-167.81067
2026-03-20 00:31:10.852,1773937870852,1773937870852,-0.8569336,0.48828125,-0.17626953,0.12207031,0.91552734,-0.30517578,0.0,0.0,0.0,109.5282,58.485718,-167.81067
2026-03-20 00:31:10.864,1773937870864,1773937870864,-0.8569336,0.48828125,-0.17626953,0.12207031,0.91552734,-0.30517578,0.0,0.0,0.0,109.72046,58.463745,-167.65686
2026-03-20 00:31:10.952,1773937870952,1773937870952,-0.85839844,0.49072266,-0.17333984,-0.061035156,0.12207031,-0.061035156,0.0,0.0,0.0,109.72046,58.463745,-167.65686
2026-03-20 00:31:10.964,1773937870964,1773937870964,-0.85839844,0.49072266,-0.17333984,-0.061035156,0.12207031,-0.061035156,0.0,0.0,0.0,109.86328,58.463745,-167.51953
2026-03-20 00:31:11.052,1773937871052,1773937871052,-0.85791016,0.49072266,-0.17480469,0.12207031,0.61035156,0.0,0.0,0.0,0.0,109.86328,58.463745,-167.51953
2026-03-20 00:31:11.063,1773937871063,1773937871063,-0.85791016,0.49072266,-0.17480469,0.12207031,0.61035156,0.0,0.0,0.0,0.0,109.91272,58.46924,-167.48108
2026-03-20 00:31:11.151,1773937871151,1773937871151,-0.8588867,0.4892578,-0.17626953,0.12207031,0.30517578,-0.061035156,0.0,0.0,0.0,109.91272,58.46924,-167.48108
2026-03-20 00:31:11.163,1773937871163,1773937871163,-0.8588867,0.4892578,-0.17626953,0.12207031,0.30517578,-0.061035156,0.0,0.0,0.0,109.989624,58.458252,-167.41516
2026-03-20 00:31:11.251,1773937871251,1773937871251,-0.8588867,0.49121094,-0.17675781,-0.24414062,2.319336,-0.24414062,0.0,0.0,0.0,109.989624,58.458252,-167.41516
2026-03-20 00:31:11.263,1773937871263,1773937871263,-0.8588867,0.49121094,-0.17675781,-0.24414062,2.319336,-0.24414062,0.0,0.0,0.0,110.1709,58.43628,-167.26685
2026-03-20 00:31:11.351,1773937871351,1773937871351,-0.8564453,0.4892578,-0.17773438,-0.12207031,0.48828125,0.061035156,0.0,0.0,0.0,110.1709,58.43628,-167.26685
2026-03-20 00:31:11.362,1773937871362,1773937871362,-0.8564453,0.4892578,-0.17773438,-0.12207031,0.48828125,0.061035156,0.0,0.0,0.0,110.43457,58.408813,-166.99768
2026-03-20 00:31:11.451,1773937871451,1773937871451,-0.85302734,0.4897461,-0.17919922,0.8544922,1.7700195,-0.30517578,0.0,0.0,0.0,110.43457,58.408813,-166.99768
2026-03-20 00:31:11.462,1773937871462,1773937871462,-0.85302734,0.4897461,-0.17919922,0.8544922,1.7700195,-0.30517578,0.0,0.0,0.0,110.56091,58.408813,-166.91528
2026-03-20 00:31:11.550,1773937871550,1773937871550,-0.8535156,0.4892578,-0.18457031,0.061035156,-1.7089844,0.18310547,0.0,0.0,0.0,110.56091,58.408813,-166.91528
2026-03-20 00:31:11.562,1773937871562,1773937871562,-0.8535156,0.4892578,-0.18457031,0.061035156,-1.7089844,0.18310547,0.0,0.0,0.0,110.53345,58.408813,-166.94824
2026-03-20 00:31:11.650,1773937871650,1773937871650,-0.8588867,0.4892578,-0.1743164,0.48828125,0.0,-0.061035156,0.0,0.0,0.0,110.53345,58.408813,-166.94824
2026-03-20 00:31:11.662,1773937871662,1773937871662,-0.8588867,0.4892578,-0.1743164,0.48828125,0.0,-0.061035156,0.0,0.0,0.0,110.582886,58.408813,-166.93176
2026-03-20 00:31:11.750,1773937871750,1773937871750,-0.86083984,0.4921875,-0.16601562,0.91552734,-5.004883,1.0375977,0.0,0.0,0.0,110.582886,58.408813,-166.93176
2026-03-20 00:31:11.761,1773937871761,1773937871761,-0.86083984,0.4921875,-0.16601562,0.91552734,-5.004883,1.0375977,0.0,0.0,0.0,110.093994,58.463745,-167.57446
2026-03-20 00:31:11.849,1773937871849,1773937871849,-0.8520508,0.4897461,-0.1821289,-0.9765625,-3.112793,0.7324219,0.0,0.0,0.0,110.093994,58.463745,-167.57446
2026-03-20 00:31:11.861,1773937871861,1773937871861,-0.8520508,0.4897461,-0.1821289,-0.9765625,-3.112793,0.7324219,0.0,0.0,0.0,109.34143,58.49121,-168.32153
2026-03-20 00:31:11.949,1773937871949,1773937871949,-0.859375,0.4951172,-0.16259766,-0.24414062,-1.0375977,0.4272461,0.0,0.0,0.0,109.34143,58.49121,-168.32153
2026-03-20 00:31:11.961,1773937871961,1773937871961,-0.859375,0.4951172,-0.16259766,-0.24414062,-1.0375977,0.4272461,0.0,0.0,0.0,109.17114,58.50769,-168.47534
2026-03-20 00:31:12.049,1773937872049,1773937872049,-0.85791016,0.49072266,-0.16894531,-0.6713867,-0.18310547,-0.24414062,0.0,0.0,0.0,109.17114,58.50769,-168.47534
2026-03-20 00:31:12.060,1773937872060,1773937872060,-0.85791016,0.49072266,-0.16894531,-0.6713867,-0.18310547,-0.24414062,0.0,0.0,0.0,109.00635,58.54065,-168.61267
2026-03-20 00:31:12.149,1773937872149,1773937872149,-0.859375,0.49169922,-0.16210938,-0.8544922,-0.5493164,0.0,0.0,0.0,0.0,109.00635,58.54065,-168.61267
2026-03-20 00:31:12.160,1773937872160,1773937872160,-0.859375,0.49169922,-0.16210938,-0.8544922,-0.5493164,0.0,0.0,0.0,0.0,108.896484,58.562622,-168.67859
2026-03-20 00:31:12.248,1773937872248,1773937872248,-0.859375,0.49316406,-0.16455078,-0.24414062,-0.36621094,0.24414062,0.0,0.0,0.0,108.896484,58.562622,-168.67859
2026-03-20 00:31:12.260,1773937872260,1773937872260,-0.859375,0.49316406,-0.16455078,-0.24414062,-0.36621094,0.24414062,0.0,0.0,0.0,108.775635,58.568115,-168.77197
2026-03-20 00:31:12.348,1773937872348,1773937872348,-0.8564453,0.4946289,-0.16259766,-0.4272461,0.0,0.24414062,0.0,0.0,0.0,108.775635,58.568115,-168.77197
2026-03-20 00:31:12.359,1773937872359,1773937872359,-0.8564453,0.4946289,-0.16259766,-0.4272461,0.0,0.24414062,0.0,0.0,0.0,108.67676,58.55713,-168.81042
2026-03-20 00:31:12.448,1773937872448,1773937872448,-0.8588867,0.49316406,-0.1586914,0.0,-0.7324219,-0.061035156,0.0,0.0,0.0,108.67676,58.55713,-168.81042
2026-03-20 00:31:12.459,1773937872459,1773937872459,-0.8588867,0.49316406,-0.1586914,0.0,-0.7324219,-0.061035156,0.0,0.0,0.0,108.583374,58.562622,-168.85437
2026-03-20 00:31:12.547,1773937872547,1773937872547,-0.859375,0.49072266,-0.16796875,-0.4272461,-0.4272461,0.0,0.0,0.0,0.0,108.583374,58.562622,-168.85437
2026-03-20 00:31:12.559,1773937872559,1773937872559,-0.859375,0.49072266,-0.16796875,-0.4272461,-0.4272461,0.0,0.0,0.0,0.0,108.39111,58.590088,-168.98071
2026-03-20 00:31:12.647,1773937872647,1773937872647,-0.8540039,0.49072266,-0.16210938,0.061035156,1.3427734,0.0,0.0,0.0,0.0,108.39111,58.590088,-168.98071
2026-03-20 00:31:12.658,1773937872658,1773937872658,-0.8540039,0.49072266,-0.16210938,0.061035156,1.3427734,0.0,0.0,0.0,0.0,108.50098,58.57361,-168.87085
2026-03-20 00:31:12.747,1773937872747,1773937872747,-0.8618164,0.49414062,-0.15771484,0.4272461,1.2207031,0.0,0.0,0.0,0.0,108.50098,58.57361,-168.87085
2026-03-20 00:31:12.758,1773937872758,1773937872758,-0.8618164,0.49414062,-0.15771484,0.4272461,1.2207031,0.0,0.0,0.0,0.0,108.847046,58.513184,-168.5083
2026-03-20 00:31:12.846,1773937872846,1773937872846,-0.8569336,0.49072266,-0.16796875,0.061035156,0.24414062,0.0,0.0,0.0,0.0,108.847046,58.513184,-168.5083
2026-03-20 00:31:12.858,1773937872858,1773937872858,-0.8569336,0.49072266,-0.16796875,0.061035156,0.24414062,0.0,0.0,0.0,0.0,108.880005,58.50769,-168.45337
2026-03-20 00:31:12.946,1773937872946,1773937872946,-0.8564453,0.49121094,-0.16748047,0.18310547,2.0141602,-0.30517578,0.0,0.0,0.0,108.880005,58.50769,-168.45337
2026-03-20 00:31:12.958,1773937872958,1773937872958,-0.8564453,0.49121094,-0.16748047,0.18310547,2.0141602,-0.30517578,0.0,0.0,0.0,109.09424,58.480225,-168.25562
2026-03-20 00:31:13.046,1773937873046,1773937873046,-0.8588867,0.4921875,-0.17236328,0.5493164,1.5869141,-0.18310547,0.0,0.0,0.0,109.09424,58.480225,-168.25562
2026-03-20 00:31:13.057,1773937873057,1773937873057,-0.8588867,0.4921875,-0.17236328,0.5493164,1.5869141,-0.18310547,0.0,0.0,0.0,109.41284,58.463745,-167.93701
2026-03-20 00:31:13.145,1773937873145,1773937873145,-0.8598633,0.49169922,-0.16796875,-0.18310547,0.6713867,-0.061035156,0.0,0.0,0.0,109.41284,58.463745,-167.93701
2026-03-20 00:31:13.157,1773937873157,1773937873157,-0.8598633,0.49169922,-0.16796875,-0.18310547,0.6713867,-0.061035156,0.0,0.0,0.0,109.627075,58.447266,-167.72278
2026-03-20 00:31:13.245,1773937873245,1773937873245,-0.8574219,0.49169922,-0.17041016,0.0,0.9765625,0.0,0.0,0.0,0.0,109.627075,58.447266,-167.72278
2026-03-20 00:31:13.257,1773937873257,1773937873257,-0.8574219,0.49169922,-0.17041016,0.0,0.9765625,0.0,0.0,0.0,0.0,109.64905,58.45276,-167.72827
2026-03-20 00:31:13.345,1773937873345,1773937873345,-0.8540039,0.4946289,-0.171875,-0.24414062,0.36621094,0.0,0.0,0.0,0.0,109.64905,58.45276,-167.72827
2026-03-20 00:31:13.357,1773937873357,1773937873357,-0.8540039,0.4946289,-0.171875,-0.24414062,0.36621094,0.0,0.0,0.0,0.0,109.72595,58.447266,-167.64587
2026-03-20 00:31:13.445,1773937873445,1773937873445,-0.85791016,0.49365234,-0.17041016,0.6713867,1.0986328,-0.36621094,0.0,0.0,0.0,109.72595,58.447266,-167.64587
2026-03-20 00:31:13.456,1773937873456,1773937873456,-0.85791016,0.49365234,-0.17041016,0.6713867,1.0986328,-0.36621094,0.0,0.0,0.0,109.819336,58.45276,-167.59094
2026-03-20 00:31:13.544,1773937873544,1773937873544,-0.8564453,0.4873047,-0.18017578,0.061035156,-0.79345703,-0.12207031,0.0,0.0,0.0,109.819336,58.45276,-167.59094
2026-03-20 00:31:13.556,1773937873556,1773937873556,-0.8564453,0.4873047,-0.18017578,0.061035156,-0.79345703,-0.12207031,0.0,0.0,0.0,109.79736,58.47473,-167.57996
2026-03-20 00:31:13.644,1773937873644,1773937873644,-0.85839844,0.4892578,-0.1665039,-0.061035156,0.30517578,-0.061035156,0.0,0.0,0.0,109.79736,58.47473,-167.57996
2026-03-20 00:31:13.656,1773937873656,1773937873656,-0.85839844,0.4892578,-0.1665039,-0.061035156,0.30517578,-0.061035156,0.0,0.0,0.0,109.96216,58.47473,-167.43164
2026-03-20 00:31:13.744,1773937873744,1773937873744,-0.85839844,0.49072266,-0.17773438,0.5493164,1.2817383,-0.24414062,0.0,0.0,0.0,109.96216,58.47473,-167.43164
2026-03-20 00:31:13.755,1773937873755,1773937873755,-0.85839844,0.49072266,-0.17773438,0.5493164,1.2817383,-0.24414062,0.0,0.0,0.0,109.98413,58.485718,-167.45361
2026-03-20 00:31:13.844,1773937873844,1773937873844,-0.8588867,0.48876953,-0.17626953,-0.12207031,-0.24414062,0.0,0.0,0.0,0.0,109.98413,58.485718,-167.45361
2026-03-20 00:31:13.855,1773937873855,1773937873855,-0.8588867,0.48876953,-0.17626953,-0.12207031,-0.24414062,0.0,0.0,0.0,0.0,110.09949,58.47473,-167.34924
2026-03-20 00:31:13.943,1773937873943,1773937873943,-0.85546875,0.4892578,-0.1743164,0.4272461,2.1972656,-0.24414062,0.0,0.0,0.0,110.09949,58.47473,-167.34924
2026-03-20 00:31:13.955,1773937873955,1773937873955,-0.85546875,0.4892578,-0.1743164,0.4272461,2.1972656,-0.24414062,0.0,0.0,0.0,110.286255,58.463745,-167.19543
2026-03-20 00:31:14.043,1773937874043,1773937874043,-0.859375,0.4873047,-0.1821289,0.18310547,-0.061035156,0.0,0.0,0.0,0.0,110.286255,58.463745,-167.19543
2026-03-20 00:31:14.054,1773937874054,1773937874054,-0.859375,0.4873047,-0.1821289,0.18310547,-0.061035156,0.0,0.0,0.0,0.0,110.38513,58.45276,-167.10205
2026-03-20 00:31:14.143,1773937874143,1773937874143,-0.85839844,0.4892578,-0.17675781,0.24414062,0.18310547,0.0,0.0,0.0,0.0,110.38513,58.45276,-167.10205
2026-03-20 00:31:14.154,1773937874154,1773937874154,-0.85839844,0.4892578,-0.17675781,0.24414062,0.18310547,0.0,0.0,0.0,0.0,110.511475,58.441772,-167.00317
2026-03-20 00:31:14.242,1773937874242,1773937874242,-0.8569336,0.4921875,-0.1796875,0.9765625,1.2207031,0.30517578,0.0,0.0,0.0,110.511475,58.441772,-167.00317
2026-03-20 00:31:14.254,1773937874254,1773937874254,-0.8569336,0.4921875,-0.1796875,0.9765625,1.2207031,0.30517578,0.0,0.0,0.0,110.59387,58.43628,-166.99768
2026-03-20 00:31:14.342,1773937874342,1773937874342,-0.86328125,0.4921875,-0.1694336,-1.2817383,-6.8359375,0.9765625,0.0,0.0,0.0,110.59387,58.43628,-166.99768
2026-03-20 00:31:14.354,1773937874354,1773937874354,-0.86328125,0.4921875,-0.1694336,-1.2817383,-6.8359375,0.9765625,0.0,0.0,0.0,110.15442,58.43628,-167.4646
2026-03-20 00:31:14.442,1773937874442,1773937874442,-0.8544922,0.49121094,-0.17138672,0.18310547,-2.319336,0.48828125,0.0,0.0,0.0,110.15442,58.43628,-167.4646
2026-03-20 00:31:14.453,1773937874453,1773937874453,-0.8544922,0.49121094,-0.17138672,0.18310547,-2.319336,0.48828125,0.0,0.0,0.0,109.297485,58.50769,-168.32703
2026-03-20 00:31:14.541,1773937874541,1773937874541,-0.86035156,0.49072266,-0.17529297,-0.6713867,-1.8920898,-0.12207031,0.0,0.0,0.0,109.297485,58.50769,-168.32703
2026-03-20 00:31:14.553,1773937874553,1773937874553,-0.86035156,0.49072266,-0.17529297,-0.6713867,-1.8920898,-0.12207031,0.0,0.0,0.0,108.8855,58.57361,-168.70605
2026-03-20 00:31:14.641,1773937874641,1773937874641,-0.85839844,0.4897461,-0.15625,-1.5869141,-1.0986328,-0.18310547,0.0,0.0,0.0,108.8855,58.57361,-168.70605
2026-03-20 00:31:14.652,1773937874652,1773937874652,-0.85839844,0.4897461,-0.15625,-1.5869141,-1.0986328,-0.18310547,0.0,0.0,0.0,108.81958,58.584595,-168.7445
2026-03-20 00:31:14.741,1773937874741,1773937874741,-0.8613281,0.49658203,-0.15820312,-0.36621094,0.18310547,0.18310547,0.0,0.0,0.0,108.81958,58.584595,-168.7445
2026-03-20 00:31:14.752,1773937874752,1773937874752,-0.8613281,0.49658203,-0.15820312,-0.36621094,0.18310547,0.18310547,0.0,0.0,0.0,108.566895,58.634033,-168.95874
2026-03-20 00:31:14.840,1773937874840,1773937874840,-0.8588867,0.49072266,-0.16748047,-0.36621094,-0.9765625,0.24414062,0.0,0.0,0.0,108.566895,58.634033,-168.95874
2026-03-20 00:31:14.852,1773937874852,1773937874852,-0.8588867,0.49072266,-0.16748047,-0.36621094,-0.9765625,0.24414062,0.0,0.0,0.0,108.36914,58.634033,-169.11804
2026-03-20 00:31:14.940,1773937874940,1773937874940,-0.8598633,0.49121094,-0.15673828,-0.61035156,-0.30517578,0.0,0.0,0.0,0.0,108.36914,58.634033,-169.11804
2026-03-20 00:31:14.952,1773937874952,1773937874952,-0.8598633,0.49121094,-0.15673828,-0.61035156,-0.30517578,0.0,0.0,0.0,0.0,108.341675,58.62854,-169.09607
2026-03-20 00:31:15.040,1773937875040,1773937875040,-0.8588867,0.49365234,-0.15625,-0.91552734,0.061035156,-0.061035156,0.0,0.0,0.0,108.341675,58.62854,-169.09607
2026-03-20 00:31:15.051,1773937875051,1773937875051,-0.8588867,0.49365234,-0.15625,-0.91552734,0.061035156,-0.061035156,0.0,0.0,0.0,108.25928,58.64502,-169.12903
2026-03-20 00:31:15.140,1773937875140,1773937875140,-0.85839844,0.49072266,-0.15722656,-1.0986328,-0.061035156,0.0,0.0,0.0,0.0,108.25928,58.64502,-169.12903
2026-03-20 00:31:15.151,1773937875151,1773937875151,-0.85839844,0.49072266,-0.15722656,-1.0986328,-0.061035156,0.0,0.0,0.0,0.0,108.149414,58.650513,-169.1565
2026-03-20 00:31:15.240,1773937875240,1773937875240,-0.859375,0.49169922,-0.16015625,-1.2817383,2.1362305,-0.18310547,0.0,0.0,0.0,108.149414,58.650513,-169.1565
2026-03-20 00:31:15.251,1773937875251,1773937875251,-0.859375,0.49169922,-0.16015625,-1.2817383,2.1362305,-0.18310547,0.0,0.0,0.0,108.15491,58.639526,-169.08508
2026-03-20 00:31:15.339,1773937875339,1773937875339,-0.859375,0.48828125,-0.17285156,0.18310547,0.79345703,0.0,0.0,0.0,0.0,108.15491,58.639526,-169.08508
2026-03-20 00:31:15.350,1773937875350,1773937875350,-0.859375,0.48828125,-0.17285156,0.18310547,0.79345703,0.0,0.0,0.0,0.0,108.36914,58.606567,-168.83789
2026-03-20 00:31:15.439,1773937875439,1773937875439,-0.8569336,0.49072266,-0.15332031,-0.18310547,-0.6713867,0.18310547,0.0,0.0,0.0,108.36914,58.606567,-168.83789
2026-03-20 00:31:15.450,1773937875450,1773937875450,-0.8569336,0.49072266,-0.15332031,-0.18310547,-0.6713867,0.18310547,0.0,0.0,0.0,108.57239,58.61206,-168.64014
2026-03-20 00:31:15.538,1773937875538,1773937875538,-0.85839844,0.49267578,-0.15722656,0.9765625,3.4179688,-0.36621094,0.0,0.0,0.0,108.57239,58.61206,-168.64014
2026-03-20 00:31:15.550,1773937875550,1773937875550,-0.85839844,0.49267578,-0.15722656,0.9765625,3.4179688,-0.36621094,0.0,0.0,0.0,108.8031,58.590088,-168.45886
2026-03-20 00:31:15.638,1773937875638,1773937875638,-0.85839844,0.49121094,-0.1694336,0.79345703,0.061035156,0.0,0.0,0.0,0.0,108.8031,58.590088,-168.45886
2026-03-20 00:31:15.650,1773937875650,1773937875650,-0.85839844,0.49121094,-0.1694336,0.79345703,0.061035156,0.0,0.0,0.0,0.0,109.14368,58.551636,-168.14575
2026-03-20 00:31:15.738,1773937875738,1773937875738,-0.8618164,0.4951172,-0.16259766,0.24414062,0.9765625,-0.24414062,0.0,0.0,0.0,109.14368,58.551636,-168.14575
2026-03-20 00:31:15.749,1773937875749,1773937875749,-0.8618164,0.4951172,-0.16259766,0.24414062,0.9765625,-0.24414062,0.0,0.0,0.0,109.35791,58.551636,-167.9425
2026-03-20 00:31:15.837,1773937875837,1773937875837,-0.8588867,0.49121094,-0.17236328,-0.24414062,0.36621094,-0.18310547,0.0,0.0,0.0,109.35791,58.551636,-167.9425
2026-03-20 00:31:15.849,1773937875849,1773937875849,-0.8588867,0.49121094,-0.17236328,-0.24414062,0.36621094,-0.18310547,0.0,0.0,0.0,109.35791,58.55713,-167.95349
2026-03-20 00:31:15.937,1773937875937,1773937875937,-0.85791016,0.49023438,-0.16796875,0.12207031,0.91552734,-0.061035156,0.0,0.0,0.0,109.35791,58.55713,-167.95349
2026-03-20 00:31:15.949,1773937875949,1773937875949,-0.85791016,0.49023438,-0.16796875,0.12207031,0.91552734,-0.061035156,0.0,0.0,0.0,109.51172,58.54065,-167.82166
2026-03-20 00:31:16.037,1773937876037,1773937876037,-0.85839844,0.49121094,-0.17089844,0.12207031,0.24414062,0.0,0.0,0.0,0.0,109.51172,58.54065,-167.82166
2026-03-20 00:31:16.048,1773937876048,1773937876048,-0.85839844,0.49121094,-0.17089844,0.12207031,0.24414062,0.0,0.0,0.0,0.0,109.55017,58.54065,-167.82166
2026-03-20 00:31:16.137,1773937876137,1773937876137,-0.8598633,0.4897461,-0.17089844,-0.061035156,0.0,-0.12207031,0.0,0.0,0.0,109.55017,58.54065,-167.82166
2026-03-20 00:31:16.148,1773937876148,1773937876148,-0.8598633,0.4897461,-0.17089844,-0.061035156,0.0,-0.12207031,0.0,0.0,0.0,109.61609,58.546143,-167.74475
2026-03-20 00:31:16.236,1773937876236,1773937876236,-0.859375,0.48632812,-0.17480469,-0.4272461,0.5493164,0.0,0.0,0.0,0.0,109.61609,58.546143,-167.74475
2026-03-20 00:31:16.248,1773937876248,1773937876248,-0.859375,0.48632812,-0.17480469,-0.4272461,0.5493164,0.0,0.0,0.0,0.0,109.66553,58.546143,-167.68433
2026-03-20 00:31:16.336,1773937876336,1773937876336,-0.86035156,0.4897461,-0.17773438,0.0,-0.4272461,0.0,0.0,0.0,0.0,109.66553,58.546143,-167.68433
2026-03-20 00:31:16.348,1773937876348,1773937876348,-0.86035156,0.4897461,-0.17773438,0.0,-0.4272461,0.0,0.0,0.0,0.0,109.714966,58.54065,-167.67883
2026-03-20 00:31:16.436,1773937876436,1773937876436,-0.8623047,0.4921875,-0.16357422,-0.24414062,1.0375977,0.0,0.0,0.0,0.0,109.714966,58.54065,-167.67883
2026-03-20 00:31:16.448,1773937876448,1773937876448,-0.8623047,0.4921875,-0.16357422,-0.24414062,1.0375977,0.0,0.0,0.0,0.0,109.96765,58.502197,-167.4591
2026-03-20 00:31:16.535,1773937876535,1773937876535,-0.8574219,0.48779297,-0.17871094,0.48828125,1.0375977,-0.061035156,0.0,0.0,0.0,109.96765,58.502197,-167.4591
2026-03-20 00:31:16.547,1773937876547,1773937876547,-0.8574219,0.48779297,-0.17871094,0.48828125,1.0375977,-0.061035156,0.0,0.0,0.0,109.94568,58.50769,-167.52502
2026-03-20 00:31:16.635,1773937876635,1773937876635,-0.85546875,0.48828125,-0.17626953,0.30517578,-1.4038086,0.4272461,0.0,0.0,0.0,109.94568,58.50769,-167.52502
2026-03-20 00:31:16.647,1773937876647,1773937876647,-0.85546875,0.48828125,-0.17626953,0.30517578,-1.4038086,0.4272461,0.0,0.0,0.0,109.97864,58.50769,-167.53601
2026-03-20 00:31:16.735,1773937876735,1773937876735,-0.86083984,0.49560547,-0.16699219,0.5493164,0.4272461,0.12207031,0.0,0.0,0.0,109.97864,58.50769,-167.53601
2026-03-20 00:31:16.746,1773937876746,1773937876746,-0.86083984,0.49560547,-0.16699219,0.5493164,0.4272461,0.12207031,0.0,0.0,0.0,110.05005,58.496704,-167.55249
2026-03-20 00:31:16.835,1773937876835,1773937876835,-0.8588867,0.4892578,-0.16748047,-0.8544922,-3.6621094,0.8544922,0.0,0.0,0.0,110.05005,58.496704,-167.55249
2026-03-20 00:31:16.846,1773937876846,1773937876846,-0.8588867,0.4892578,-0.16748047,-0.8544922,-3.6621094,0.8544922,0.0,0.0,0.0,109.57764,58.52417,-168.07983
2026-03-20 00:31:16.934,1773937876934,1773937876934,-0.8569336,0.49023438,-0.16552734,-1.159668,-2.6855469,0.24414062,0.0,0.0,0.0,109.57764,58.52417,-168.07983
2026-03-20 00:31:16.946,1773937876946,1773937876946,-0.8569336,0.49023438,-0.16552734,-1.159668,-2.6855469,0.24414062,0.0,0.0,0.0,109.03931,58.562622,-168.60718
2026-03-20 00:31:17.034,1773937877034,1773937877034,-0.85791016,0.49072266,-0.16455078,-0.24414062,-1.4038086,0.30517578,0.0,0.0,0.0,109.03931,58.562622,-168.60718
2026-03-20 00:31:17.045,1773937877045,1773937877045,-0.85791016,0.49072266,-0.16455078,-0.24414062,-1.4038086,0.30517578,0.0,0.0,0.0,108.61633,58.59558,-169.03564
2026-03-20 00:31:17.134,1773937877134,1773937877134,-0.86083984,0.49121094,-0.16308594,-0.24414062,-0.9765625,0.0,0.0,0.0,0.0,108.61633,58.59558,-169.03564
2026-03-20 00:31:17.145,1773937877145,1773937877145,-0.86083984,0.49121094,-0.16308594,-0.24414062,-0.9765625,0.0,0.0,0.0,0.0,108.50647,58.61206,-169.09058
2026-03-20 00:31:17.234,1773937877234,1773937877234,-0.8598633,0.49414062,-0.15673828,-0.18310547,-0.061035156,0.0,0.0,0.0,0.0,108.50647,58.61206,-169.09058
2026-03-20 00:31:17.245,1773937877245,1773937877245,-0.8598633,0.49414062,-0.15673828,-0.18310547,-0.061035156,0.0,0.0,0.0,0.0,108.446045,58.62854,-169.09607
2026-03-20 00:31:17.333,1773937877333,1773937877333,-0.8623047,0.4921875,-0.16748047,-0.24414062,-0.36621094,0.0,0.0,0.0,0.0,108.446045,58.62854,-169.09607
2026-03-20 00:31:17.345,1773937877345,1773937877345,-0.8623047,0.4921875,-0.16748047,-0.24414062,-0.36621094,0.0,0.0,0.0,0.0,108.29773,58.639526,-169.20593
2026-03-20 00:31:17.433,1773937877433,1773937877433,-0.86083984,0.48876953,-0.16357422,-1.0986328,-1.5258789,0.12207031,0.0,0.0,0.0,108.29773,58.639526,-169.20593
2026-03-20 00:31:17.445,1773937877445,1773937877445,-0.86083984,0.48876953,-0.16357422,-1.0986328,-1.5258789,0.12207031,0.0,0.0,0.0,108.099976,58.656006,-169.34326
2026-03-20 00:31:17.532,1773937877532,1773937877532,-0.859375,0.49365234,-0.15039062,-1.0986328,-0.30517578,0.0,0.0,0.0,0.0,108.099976,58.656006,-169.34326
2026-03-20 00:31:17.544,1773937877544,1773937877544,-0.859375,0.49365234,-0.15039062,-1.0986328,-0.30517578,0.0,0.0,0.0,0.0,107.96814,58.666992,-169.43115
2026-03-20 00:31:17.632,1773937877632,1773937877632,-0.8598633,0.4946289,-0.1586914,0.061035156,1.6479492,0.0,0.0,0.0,0.0,107.96814,58.666992,-169.43115
2026-03-20 00:31:17.644,1773937877644,1773937877644,-0.8598633,0.4946289,-0.1586914,0.061035156,1.6479492,0.0,0.0,0.0,0.0,107.94617,58.666992,-169.42017
2026-03-20 00:31:17.732,1773937877732,1773937877732,-0.85791016,0.49316406,-0.15820312,0.0,0.12207031,0.24414062,0.0,0.0,0.0,107.94617,58.666992,-169.42017
2026-03-20 00:31:17.743,1773937877743,1773937877743,-0.85791016,0.49316406,-0.15820312,0.0,0.12207031,0.24414062,0.0,0.0,0.0,108.1604,58.62854,-169.14551
2026-03-20 00:31:17.832,1773937877832,1773937877832,-0.8598633,0.4946289,-0.15917969,0.0,0.91552734,-0.18310547,0.0,0.0,0.0,108.1604,58.62854,-169.14551
2026-03-20 00:31:17.843,1773937877843,1773937877843,-0.8598633,0.4946289,-0.15917969,0.0,0.91552734,-0.18310547,0.0,0.0,0.0,108.23181,58.617554,-169.05762
2026-03-20 00:31:17.931,1773937877931,1773937877931,-0.85839844,0.49267578,-0.16210938,0.5493164,0.6713867,-0.061035156,0.0,0.0,0.0,108.23181,58.617554,-169.05762
2026-03-20 00:31:17.943,1773937877943,1773937877943,-0.85839844,0.49267578,-0.16210938,0.5493164,0.6713867,-0.061035156,0.0,0.0,0.0,108.341675,58.61206,-168.96423
2026-03-20 00:31:18.031,1773937878031,1773937878031,-0.8574219,0.49121094,-0.16699219,0.7324219,3.0517578,-0.36621094,0.0,0.0,0.0,108.341675,58.61206,-168.96423
2026-03-20 00:31:18.042,1773937878042,1773937878042,-0.8574219,0.49121094,-0.16699219,0.7324219,3.0517578,-0.36621094,0.0,0.0,0.0,108.71521,58.562622,-168.61267
2026-03-20 00:31:18.131,1773937878131,1773937878131,-0.86035156,0.4921875,-0.16210938,0.0,1.4648438,-0.30517578,0.0,0.0,0.0,108.71521,58.562622,-168.61267
2026-03-20 00:31:18.142,1773937878142,1773937878142,-0.86035156,0.4921875,-0.16210938,0.0,1.4648438,-0.30517578,0.0,0.0,0.0,109.09424,58.52417,-168.24463
2026-03-20 00:31:18.230,1773937878230,1773937878230,-0.8588867,0.4921875,-0.16503906,0.0,0.061035156,0.0,0.0,0.0,0.0,109.09424,58.52417,-168.24463
2026-03-20 00:31:18.242,1773937878242,1773937878242,-0.8588867,0.4921875,-0.16503906,0.0,0.061035156,0.0,0.0,0.0,0.0,109.23157,58.529663,-168.1018
2026-03-20 00:31:18.330,1773937878330,1773937878330,-0.8569336,0.4951172,-0.15966797,-0.18310547,1.953125,-0.24414062,0.0,0.0,0.0,109.23157,58.529663,-168.1018
2026-03-20 00:31:18.342,1773937878342,1773937878342,-0.8569336,0.4951172,-0.15966797,-0.18310547,1.953125,-0.24414062,0.0,0.0,0.0,109.32495,58.529663,-168.05237
2026-03-20 00:31:18.430,1773937878430,1773937878430,-0.85546875,0.4897461,-0.17822266,0.48828125,0.18310547,0.0,0.0,0.0,0.0,109.32495,58.529663,-168.05237
2026-03-20 00:31:18.442,1773937878442,1773937878442,-0.85546875,0.4897461,-0.17822266,0.48828125,0.18310547,0.0,0.0,0.0,0.0,109.297485,58.529663,-168.07983
2026-03-20 00:31:18.529,1773937878529,1773937878529,-0.8598633,0.49023438,-0.16455078,0.0,-0.36621094,0.0,0.0,0.0,0.0,109.297485,58.529663,-168.07983
2026-03-20 00:31:18.541,1773937878541,1773937878541,-0.8598633,0.49023438,-0.16455078,0.0,-0.36621094,0.0,0.0,0.0,0.0,109.50073,58.502197,-167.91504
2026-03-20 00:31:18.629,1773937878629,1773937878629,-0.86035156,0.49169922,-0.16894531,0.36621094,1.4038086,-0.30517578,0.0,0.0,0.0,109.50073,58.502197,-167.91504
2026-03-20 00:31:18.641,1773937878641,1773937878641,-0.86035156,0.49169922,-0.16894531,0.36621094,1.4038086,-0.30517578,0.0,0.0,0.0,109.5282,58.50769,-167.92053
2026-03-20 00:31:18.729,1773937878729,1773937878729,-0.85839844,0.4897461,-0.17675781,-0.24414062,-0.48828125,-0.061035156,0.0,0.0,0.0,109.5282,58.50769,-167.92053
2026-03-20 00:31:18.741,1773937878741,1773937878741,-0.85839844,0.4897461,-0.17675781,-0.24414062,-0.48828125,-0.061035156,0.0,0.0,0.0,109.57764,58.513184,-167.87659
2026-03-20 00:31:18.829,1773937878829,1773937878829,-0.8598633,0.49121094,-0.16748047,-0.12207031,1.0375977,-0.18310547,0.0,0.0,0.0,109.57764,58.513184,-167.87659
2026-03-20 00:31:18.840,1773937878840,1773937878840,-0.8598633,0.49121094,-0.16748047,-0.12207031,1.0375977,-0.18310547,0.0,0.0,0.0,109.6875,58.50769,-167.77222
2026-03-20 00:31:18.928,1773937878928,1773937878928,-0.85791016,0.4892578,-0.17480469,0.30517578,0.5493164,0.0,0.0,0.0,0.0,109.6875,58.50769,-167.77222
2026-03-20 00:31:18.940,1773937878940,1773937878940,-0.85791016,0.4892578,-0.17480469,0.30517578,0.5493164,0.0,0.0,0.0,0.0,109.72595,58.50769,-167.75024
2026-03-20 00:31:19.028,1773937879028,1773937879028,-0.8574219,0.49169922,-0.17285156,0.24414062,0.24414062,0.061035156,0.0,0.0,0.0,109.72595,58.50769,-167.75024
2026-03-20 00:31:19.039,1773937879039,1773937879039,-0.8574219,0.49169922,-0.17285156,0.24414062,0.24414062,0.061035156,0.0,0.0,0.0,109.85779,58.496704,-167.63489
2026-03-20 00:31:19.128,1773937879128,1773937879128,-0.85839844,0.4921875,-0.17236328,-0.61035156,0.6713867,0.061035156,0.0,0.0,0.0,109.85779,58.496704,-167.63489
2026-03-20 00:31:19.139,1773937879139,1773937879139,-0.85839844,0.4921875,-0.17236328,-0.61035156,0.6713867,0.061035156,0.0,0.0,0.0,109.89075,58.49121,-167.6239
2026-03-20 00:31:19.227,1773937879227,1773937879227,-0.8623047,0.49267578,-0.16894531,-0.7324219,-1.8310547,0.30517578,0.0,0.0,0.0,109.89075,58.49121,-167.6239
2026-03-20 00:31:19.239,1773937879239,1773937879239,-0.8623047,0.49267578,-0.16894531,-0.7324219,-1.8310547,0.30517578,0.0,0.0,0.0,109.84131,58.502197,-167.7063
2026-03-20 00:31:19.327,1773937879327,1773937879327,-0.86083984,0.49658203,-0.1538086,-1.4038086,-4.1503906,0.79345703,0.0,0.0,0.0,109.84131,58.502197,-167.7063
2026-03-20 00:31:19.339,1773937879339,1773937879339,-0.86083984,0.49658203,-0.1538086,-1.4038086,-4.1503906,0.79345703,0.0,0.0,0.0,109.072266,58.568115,-168.60168
2026-03-20 00:31:19.427,1773937879427,1773937879427,-0.85791016,0.48876953,-0.16357422,-0.24414062,-1.2817383,0.18310547,0.0,0.0,0.0,109.072266,58.568115,-168.60168
2026-03-20 00:31:19.438,1773937879438,1773937879438,-0.85791016,0.48876953,-0.16357422,-0.24414062,-1.2817383,0.18310547,0.0,0.0,0.0,108.50647,58.61206,-169.14001
2026-03-20 00:31:19.527,1773937879527,1773937879527,-0.85546875,0.49023438,-0.1616211,-0.36621094,-0.7324219,0.0,0.0,0.0,0.0,108.50647,58.61206,-169.14001
2026-03-20 00:31:19.538,1773937879538,1773937879538,-0.85546875,0.49023438,-0.1616211,-0.36621094,-0.7324219,0.0,0.0,0.0,0.0,108.36914,58.617554,-169.29932
2026-03-20 00:31:19.626,1773937879626,1773937879626,-0.86083984,0.49365234,-0.1508789,-0.4272461,-0.7324219,0.061035156,0.0,0.0,0.0,108.36914,58.617554,-169.29932
2026-03-20 00:31:19.638,1773937879638,1773937879638,-0.86083984,0.49365234,-0.1508789,-0.4272461,-0.7324219,0.061035156,0.0,0.0,0.0,108.29773,58.634033,-169.32129
2026-03-20 00:31:19.726,1773937879726,1773937879726,-0.85791016,0.49267578,-0.15966797,-0.6713867,-0.4272461,0.12207031,0.0,0.0,0.0,108.29773,58.634033,-169.32129
2026-03-20 00:31:19.737,1773937879737,1773937879737,-0.85791016,0.49267578,-0.15966797,-0.6713867,-0.4272461,0.12207031,0.0,0.0,0.0,108.13843,58.64502,-169.41467
2026-03-20 00:31:19.826,1773937879826,1773937879826,-0.85791016,0.49316406,-0.15722656,-0.6713867,0.5493164,0.0,0.0,0.0,0.0,108.13843,58.64502,-169.41467
2026-03-20 00:31:19.837,1773937879837,1773937879837,-0.85791016,0.49316406,-0.15722656,-0.6713867,0.5493164,0.0,0.0,0.0,0.0,108.11096,58.639526,-169.38171
2026-03-20 00:31:19.925,1773937879925,1773937879925,-0.86035156,0.49316406,-0.15673828,-0.5493164,0.30517578,0.0,0.0,0.0,0.0,108.11096,58.639526,-169.38171
2026-03-20 00:31:19.937,1773937879937,1773937879937,-0.86035156,0.49316406,-0.15673828,-0.5493164,0.30517578,0.0,0.0,0.0,0.0,108.09448,58.62854,-169.35974
2026-03-20 00:31:20.025,1773937880025,1773937880025,-0.8588867,0.49365234,-0.15576172,-0.6713867,-0.12207031,0.0,0.0,0.0,0.0,108.09448,58.62854,-169.35974
2026-03-20 00:31:20.036,1773937880036,1773937880036,-0.8588867,0.49365234,-0.15576172,-0.6713867,-0.12207031,0.0,0.0,0.0,0.0,108.06152,58.62854,-169.33228
2026-03-20 00:31:20.125,1773937880125,1773937880125,-0.85791016,0.49316406,-0.15917969,-1.2207031,0.12207031,0.0,0.0,0.0,0.0,108.06152,58.62854,-169.33228
2026-03-20 00:31:20.136,1773937880136,1773937880136,-0.85791016,0.49316406,-0.15917969,-1.2207031,0.12207031,0.0,0.0,0.0,0.0,107.96814,58.62854,-169.34875
2026-03-20 00:31:20.224,1773937880224,1773937880224,-0.8564453,0.4868164,-0.16699219,-0.6713867,-0.061035156,0.0,0.0,0.0,0.0,107.96814,58.62854,-169.34875
2026-03-20 00:31:20.236,1773937880236,1773937880236,-0.8564453,0.4868164,-0.16699219,-0.6713867,-0.061035156,0.0,0.0,0.0,0.0,108.03955,58.61206,-169.23889
2026-03-20 00:31:20.324,1773937880324,1773937880324,-0.86328125,0.49365234,-0.14257812,-1.159668,1.0986328,-0.18310547,0.0,0.0,0.0,108.03955,58.61206,-169.23889
2026-03-20 00:31:20.336,1773937880336,1773937880336,-0.86328125,0.49365234,-0.14257812,-1.159668,1.0986328,-0.18310547,0.0,0.0,0.0,108.220825,58.590088,-169.05212
2026-03-20 00:31:20.424,1773937880424,1773937880424,-0.8574219,0.49609375,-0.15625,0.36621094,2.5634766,-0.18310547,0.0,0.0,0.0,108.220825,58.590088,-169.05212
2026-03-20 00:31:20.435,1773937880435,1773937880435,-0.8574219,0.49609375,-0.15625,0.36621094,2.5634766,-0.18310547,0.0,0.0,0.0,108.253784,58.59558,-169.04114
2026-03-20 00:31:20.523,1773937880523,1773937880523,-0.85839844,0.49121094,-0.17138672,0.79345703,0.91552734,0.0,0.0,0.0,0.0,108.253784,58.59558,-169.04114
2026-03-20 00:31:20.535,1773937880535,1773937880535,-0.85839844,0.49121094,-0.17138672,0.79345703,0.91552734,0.0,0.0,0.0,0.0,108.533936,58.568115,-168.78296
2026-03-20 00:31:20.623,1773937880623,1773937880623,-0.8564453,0.4892578,-0.15722656,0.18310547,0.48828125,0.24414062,0.0,0.0,0.0,108.533936,58.568115,-168.78296
2026-03-20 00:31:20.635,1773937880635,1773937880635,-0.8564453,0.4892578,-0.15722656,0.18310547,0.48828125,0.24414062,0.0,0.0,0.0,108.896484,58.518677,-168.43689
2026-03-20 00:31:20.723,1773937880723,1773937880723,-0.86083984,0.49316406,-0.16699219,0.48828125,2.9296875,-0.12207031,0.0,0.0,0.0,108.896484,58.518677,-168.43689
2026-03-20 00:31:20.734,1773937880734,1773937880734,-0.86083984,0.49316406,-0.16699219,0.48828125,2.9296875,-0.12207031,0.0,0.0,0.0,109.11621,58.496704,-168.27759
2026-03-20 00:31:20.823,1773937880823,1773937880823,-0.85791016,0.49169922,-0.17138672,0.061035156,0.12207031,-0.18310547,0.0,0.0,0.0,109.11621,58.496704,-168.27759
2026-03-20 00:31:20.834,1773937880834,1773937880834,-0.85791016,0.49169922,-0.17138672,0.061035156,0.12207031,-0.18310547,0.0,0.0,0.0,109.27551,58.485718,-168.1128
2026-03-20 00:31:20.922,1773937880922,1773937880922,-0.8564453,0.49267578,-0.16601562,-0.12207031,0.91552734,-0.061035156,0.0,0.0,0.0,109.27551,58.485718,-168.1128
2026-03-20 00:31:20.934,1773937880934,1773937880934,-0.8564453,0.49267578,-0.16601562,-0.12207031,0.91552734,-0.061035156,0.0,0.0,0.0,109.41284,58.47473,-167.98645
2026-03-20 00:31:21.022,1773937881022,1773937881022,-0.85839844,0.49267578,-0.16992188,0.18310547,0.0,0.0,0.0,0.0,0.0,109.41284,58.47473,-167.98645
2026-03-20 00:31:21.034,1773937881034,1773937881034,-0.85839844,0.49267578,-0.16992188,0.18310547,0.0,0.0,0.0,0.0,0.0,109.47327,58.46924,-167.92053
2026-03-20 00:31:21.122,1773937881122,1773937881122,-0.85839844,0.48828125,-0.17333984,0.12207031,0.061035156,0.0,0.0,0.0,0.0,109.47327,58.46924,-167.92053
2026-03-20 00:31:21.133,1773937881133,1773937881133,-0.85839844,0.48828125,-0.17333984,0.12207031,0.061035156,0.0,0.0,0.0,0.0,109.54468,58.45276,-167.83813
2026-03-20 00:31:21.221,1773937881221,1773937881221,-0.86083984,0.48876953,-0.18115234,0.061035156,0.061035156,0.0,0.0,0.0,0.0,109.54468,58.45276,-167.83813
2026-03-20 00:31:21.233,1773937881233,1773937881233,-0.86083984,0.48876953,-0.18115234,0.061035156,0.061035156,0.0,0.0,0.0,0.0,109.57764,58.45276,-167.81616
2026-03-20 00:31:21.321,1773937881321,1773937881321,-0.86083984,0.49023438,-0.16503906,-0.36621094,-0.061035156,0.0,0.0,0.0,0.0,109.57764,58.45276,-167.81616
2026-03-20 00:31:21.333,1773937881333,1773937881333,-0.86083984,0.49023438,-0.16503906,-0.36621094,-0.061035156,0.0,0.0,0.0,0.0,109.78638,58.4198,-167.64038
2026-03-20 00:31:21.421,1773937881421,1773937881421,-0.8569336,0.49169922,-0.17333984,0.61035156,1.5258789,0.0,0.0,0.0,0.0,109.78638,58.4198,-167.64038
2026-03-20 00:31:21.432,1773937881432,1773937881432,-0.8569336,0.49169922,-0.17333984,0.61035156,1.5258789,0.0,0.0,0.0,0.0,109.819336,58.430786,-167.66235
2026-03-20 00:31:21.520,1773937881520,1773937881520,-0.8544922,0.4892578,-0.18017578,0.30517578,-1.0986328,0.30517578,0.0,0.0,0.0,109.819336,58.430786,-167.66235
2026-03-20 00:31:21.532,1773937881532,1773937881532,-0.8544922,0.4892578,-0.18017578,0.30517578,-1.0986328,0.30517578,0.0,0.0,0.0,109.85779,58.4198,-167.63489
2026-03-20 00:31:21.620,1773937881620,1773937881620,-0.8618164,0.4946289,-0.16455078,0.0,-0.24414062,0.12207031,0.0,0.0,0.0,109.85779,58.4198,-167.63489
2026-03-20 00:31:21.632,1773937881632,1773937881632,-0.8618164,0.4946289,-0.16455078,0.0,-0.24414062,0.12207031,0.0,0.0,0.0,109.97864,58.408813,-167.55249
2026-03-20 00:31:21.720,1773937881720,1773937881720,-0.8613281,0.4970703,-0.16699219,-1.2817383,-2.6855469,0.61035156,0.0,0.0,0.0,109.97864,58.408813,-167.55249
2026-03-20 00:31:21.732,1773937881732,1773937881732,-0.8613281,0.4970703,-0.16699219,-1.2817383,-2.6855469,0.61035156,0.0,0.0,0.0,109.46777,58.463745,-168.09631
2026-03-20 00:31:21.820,1773937881820,1773937881820,-0.859375,0.49072266,-0.17236328,-1.8920898,-4.5776367,0.24414062,0.0,0.0,0.0,109.46777,58.463745,-168.09631
2026-03-20 00:31:21.832,1773937881832,1773937881832,-0.859375,0.49072266,-0.17236328,-1.8920898,-4.5776367,0.24414062,0.0,0.0,0.0,108.46802,58.551636,-169.05212
2026-03-20 00:31:21.919,1773937881919,1773937881919,-0.8588867,0.49365234,-0.15136719,-0.4272461,-1.5258789,0.30517578,0.0,0.0,0.0,108.46802,58.551636,-169.05212
2026-03-20 00:31:21.931,1773937881931,1773937881931,-0.8588867,0.49365234,-0.15136719,-0.4272461,-1.5258789,0.30517578,0.0,0.0,0.0,108.237305,58.551636,-169.24988
2026-03-20 00:31:22.019,1773937882019,1773937882019,-0.859375,0.4951172,-0.16210938,-0.18310547,0.36621094,0.0,0.0,0.0,0.0,108.237305,58.551636,-169.24988
2026-03-20 00:31:22.030,1773937882030,1773937882030,-0.859375,0.4951172,-0.16210938,-0.18310547,0.36621094,0.0,0.0,0.0,0.0,108.05054,58.584595,-169.3927
2026-03-20 00:31:22.119,1773937882119,1773937882119,-0.85839844,0.49609375,-0.15429688,0.0,-0.36621094,0.061035156,0.0,0.0,0.0,108.05054,58.584595,-169.3927
2026-03-20 00:31:22.130,1773937882130,1773937882130,-0.85839844,0.49609375,-0.15429688,0.0,-0.36621094,0.061035156,0.0,0.0,0.0,108.09448,58.584595,-169.29932
2026-03-20 00:31:22.218,1773937882218,1773937882218,-0.86083984,0.49316406,-0.16064453,0.061035156,0.18310547,-0.061035156,0.0,0.0,0.0,108.09448,58.584595,-169.29932
2026-03-20 00:31:22.230,1773937882230,1773937882230,-0.86083984,0.49316406,-0.16064453,0.061035156,0.18310547,-0.061035156,0.0,0.0,0.0,107.96814,58.584595,-169.42566
2026-03-20 00:31:22.318,1773937882318,1773937882318,-0.86035156,0.49072266,-0.16601562,-0.4272461,-1.3427734,0.061035156,0.0,0.0,0.0,107.96814,58.584595,-169.42566
2026-03-20 00:31:22.330,1773937882330,1773937882330,-0.86035156,0.49072266,-0.16601562,-0.4272461,-1.3427734,0.061035156,0.0,0.0,0.0,107.83081,58.590088,-169.51904
2026-03-20 00:31:22.418,1773937882418,1773937882418,-0.8598633,0.49658203,-0.15136719,-0.7324219,0.24414062,0.0,0.0,0.0,0.0,107.83081,58.590088,-169.51904
2026-03-20 00:31:22.429,1773937882429,1773937882429,-0.8598633,0.49658203,-0.15136719,-0.7324219,0.24414062,0.0,0.0,0.0,0.0,107.84729,58.584595,-169.4751
2026-03-20 00:31:22.517,1773937882517,1773937882517,-0.86083984,0.49853516,-0.15576172,-0.061035156,0.8544922,0.0,0.0,0.0,0.0,107.84729,58.584595,-169.4751
2026-03-20 00:31:22.529,1773937882529,1773937882529,-0.86083984,0.49853516,-0.15576172,-0.061035156,0.8544922,0.0,0.0,0.0,0.0,107.80884,58.584595,-169.49158
2026-03-20 00:31:22.617,1773937882617,1773937882617,-0.85839844,0.49267578,-0.16259766,0.061035156,1.5869141,0.0,0.0,0.0,0.0,107.80884,58.584595,-169.49158
2026-03-20 00:31:22.629,1773937882629,1773937882629,-0.85839844,0.49267578,-0.16259766,0.061035156,1.5869141,0.0,0.0,0.0,0.0,107.95166,58.551636,-169.30481
2026-03-20 00:31:22.717,1773937882717,1773937882717,-0.85839844,0.4946289,-0.15625,-0.4272461,0.36621094,-0.12207031,0.0,0.0,0.0,107.95166,58.551636,-169.30481
2026-03-20 00:31:22.728,1773937882728,1773937882728,-0.85839844,0.4946289,-0.15625,-0.4272461,0.36621094,-0.12207031,0.0,0.0,0.0,108.11096,58.52417,-169.12903
2026-03-20 00:31:22.816,1773937882816,1773937882816,-0.85791016,0.4946289,-0.16064453,0.0,0.91552734,0.0,0.0,0.0,0.0,108.11096,58.52417,-169.12903
2026-03-20 00:31:22.829,1773937882829,1773937882829,-0.85791016,0.4946289,-0.16064453,0.0,0.91552734,0.0,0.0,0.0,0.0,108.12195,58.535156,-169.10706
2026-03-20 00:31:22.916,1773937882916,1773937882916,-0.8540039,0.4921875,-0.16259766,0.36621094,1.4038086,0.0,0.0,0.0,0.0,108.12195,58.535156,-169.10706
2026-03-20 00:31:22.928,1773937882928,1773937882928,-0.8540039,0.4921875,-0.16259766,0.36621094,1.4038086,0.0,0.0,0.0,0.0,108.27026,58.513184,-168.97522
2026-03-20 00:31:23.016,1773937883016,1773937883016,-0.85791016,0.49560547,-0.16015625,0.36621094,2.6245117,-0.24414062,0.0,0.0,0.0,108.27026,58.513184,-168.97522
2026-03-20 00:31:23.028,1773937883028,1773937883028,-0.85791016,0.49560547,-0.16015625,0.36621094,2.6245117,-0.24414062,0.0,0.0,0.0,108.70422,58.458252,-168.56323
2026-03-20 00:31:23.116,1773937883116,1773937883116,-0.859375,0.49023438,-0.16748047,-0.12207031,-0.061035156,-0.24414062,0.0,0.0,0.0,108.70422,58.458252,-168.56323
2026-03-20 00:31:23.127,1773937883127,1773937883127,-0.859375,0.49023438,-0.16748047,-0.12207031,-0.061035156,-0.24414062,0.0,0.0,0.0,108.93494,58.447266,-168.31604
2026-03-20 00:31:23.215,1773937883215,1773937883215,-0.8564453,0.49804688,-0.1538086,-0.24414062,1.6479492,-0.12207031,0.0,0.0,0.0,108.93494,58.447266,-168.31604
2026-03-20 00:31:23.227,1773937883227,1773937883227,-0.8564453,0.49804688,-0.1538086,-0.24414062,1.6479492,-0.12207031,0.0,0.0,0.0,109.105225,58.45276,-168.1842
2026-03-20 00:31:23.315,1773937883315,1773937883315,-0.8544922,0.49365234,-0.17382812,0.5493164,0.9765625,0.0,0.0,0.0,0.0,109.105225,58.45276,-168.1842
2026-03-20 00:31:23.326,1773937883326,1773937883326,-0.8544922,0.49365234,-0.17382812,0.5493164,0.9765625,0.0,0.0,0.0,0.0,109.08325,58.45276,-168.21716
2026-03-20 00:31:23.415,1773937883415,1773937883415,-0.8574219,0.49169922,-0.16601562,0.30517578,-0.61035156,0.18310547,0.0,0.0,0.0,109.08325,58.45276,-168.21716
2026-03-20 00:31:23.426,1773937883426,1773937883426,-0.8574219,0.49169922,-0.16601562,0.30517578,-0.61035156,0.18310547,0.0,0.0,0.0,109.27551,58.4198,-168.04688
2026-03-20 00:31:23.514,1773937883514,1773937883514,-0.8588867,0.4946289,-0.16601562,0.36621094,1.8310547,-0.18310547,0.0,0.0,0.0,109.27551,58.4198,-168.04688
2026-03-20 00:31:23.526,1773937883526,1773937883526,-0.8588867,0.4946289,-0.16601562,0.36621094,1.8310547,-0.18310547,0.0,0.0,0.0,109.42383,58.408813,-167.9425
2026-03-20 00:31:23.614,1773937883614,1773937883614,-0.85791016,0.49121094,-0.1772461,0.0,0.0,-0.18310547,0.0,0.0,0.0,109.42383,58.408813,-167.9425
2026-03-20 00:31:23.625,1773937883625,1773937883625,-0.85791016,0.49121094,-0.1772461,0.0,0.0,-0.18310547,0.0,0.0,0.0,109.48425,58.414307,-167.90405
2026-03-20 00:31:23.714,1773937883714,1773937883714,-0.8569336,0.49365234,-0.16796875,-0.12207031,0.8544922,-0.12207031,0.0,0.0,0.0,109.48425,58.414307,-167.90405
2026-03-20 00:31:23.725,1773937883725,1773937883725,-0.8569336,0.49365234,-0.16796875,-0.12207031,0.8544922,-0.12207031,0.0,0.0,0.0,109.610596,58.4198,-167.79968
2026-03-20 00:31:23.814,1773937883814,1773937883814,-0.8574219,0.49169922,-0.17333984,0.30517578,0.12207031,0.0,0.0,0.0,0.0,109.610596,58.4198,-167.79968
2026-03-20 00:31:23.825,1773937883825,1773937883825,-0.8574219,0.49169922,-0.17333984,0.30517578,0.12207031,0.0,0.0,0.0,0.0,109.660034,58.408813,-167.77771
2026-03-20 00:31:23.913,1773937883913,1773937883913,-0.8574219,0.49121094,-0.171875,0.30517578,0.24414062,0.0,0.0,0.0,0.0,109.660034,58.408813,-167.77771
2026-03-20 00:31:23.925,1773937883925,1773937883925,-0.8574219,0.49121094,-0.171875,0.30517578,0.24414062,0.0,0.0,0.0,0.0,109.7699,58.40332,-167.67883
2026-03-20 00:31:24.013,1773937884013,1773937884013,-0.8564453,0.49365234,-0.17480469,-0.12207031,0.79345703,0.0,0.0,0.0,0.0,109.7699,58.40332,-167.67883
2026-03-20 00:31:24.024,1773937884024,1773937884024,-0.8564453,0.49365234,-0.17480469,-0.12207031,0.79345703,0.0,0.0,0.0,0.0,109.835815,58.397827,-167.63489
2026-03-20 00:31:24.113,1773937884113,1773937884113,-0.8564453,0.49169922,-0.17138672,-0.12207031,0.24414062,0.30517578,0.0,0.0,0.0,109.835815,58.397827,-167.63489
2026-03-20 00:31:24.124,1773937884124,1773937884124,-0.8564453,0.49169922,-0.17138672,-0.12207031,0.24414062,0.30517578,0.0,0.0,0.0,109.91272,58.381348,-167.57996
2026-03-20 00:31:24.212,1773937884212,1773937884212,-0.85498047,0.49316406,-0.16894531,0.18310547,1.4038086,0.0,0.0,0.0,0.0,109.91272,58.381348,-167.57996
2026-03-20 00:31:24.224,1773937884224,1773937884224,-0.85498047,0.49316406,-0.16894531,0.18310547,1.4038086,0.0,0.0,0.0,0.0,109.96216,58.37036,-167.58545
2026-03-20 00:31:24.312,1773937884312,1773937884312,-0.8598633,0.4946289,-0.16455078,-1.4648438,-3.7841797,0.5493164,0.0,0.0,0.0,109.96216,58.37036,-167.58545
2026-03-20 00:31:24.324,1773937884324,1773937884324,-0.8598633,0.4946289,-0.16455078,-1.4648438,-3.7841797,0.5493164,0.0,0.0,0.0,109.539185,58.408813,-168.0304
2026-03-20 00:31:24.412,1773937884412,1773937884412,-0.85302734,0.49560547,-0.17041016,-0.5493164,-3.540039,0.61035156,0.0,0.0,0.0,109.539185,58.408813,-168.0304
2026-03-20 00:31:24.423,1773937884423,1773937884423,-0.85302734,0.49560547,-0.17041016,-0.5493164,-3.540039,0.61035156,0.0,0.0,0.0,108.7207,58.485718,-168.81592
2026-03-20 00:31:24.511,1773937884511,1773937884511,-0.8598633,0.49414062,-0.15527344,-0.4272461,-1.4648438,0.12207031,0.0,0.0,0.0,108.7207,58.485718,-168.81592
2026-03-20 00:31:24.523,1773937884523,1773937884523,-0.8598633,0.49414062,-0.15527344,-0.4272461,-1.4648438,0.12207031,0.0,0.0,0.0,108.429565,58.49121,-169.12903
2026-03-20 00:31:24.611,1773937884611,1773937884611,-0.8574219,0.49267578,-0.16601562,-0.5493164,0.12207031,-0.12207031,0.0,0.0,0.0,108.429565,58.49121,-169.12903
2026-03-20 00:31:24.623,1773937884623,1773937884623,-0.8574219,0.49267578,-0.16601562,-0.5493164,0.12207031,-0.12207031,0.0,0.0,0.0,108.27026,58.50769,-169.24438
2026-03-20 00:31:24.711,1773937884711,1773937884711,-0.8588867,0.4946289,-0.15722656,-0.48828125,-0.24414062,-0.061035156,0.0,0.0,0.0,108.27026,58.50769,-169.24438
2026-03-20 00:31:24.722,1773937884722,1773937884722,-0.8588867,0.4946289,-0.15722656,-0.48828125,-0.24414062,-0.061035156,0.0,0.0,0.0,108.26477,58.518677,-169.20593
2026-03-20 00:31:24.810,1773937884810,1773937884810,-0.8569336,0.4951172,-0.16210938,0.0,0.18310547,0.0,0.0,0.0,0.0,108.26477,58.518677,-169.20593
2026-03-20 00:31:24.822,1773937884822,1773937884822,-0.8569336,0.4951172,-0.16210938,0.0,0.18310547,0.0,0.0,0.0,0.0,108.220825,58.529663,-169.22241
2026-03-20 00:31:24.910,1773937884910,1773937884910,-0.8588867,0.49365234,-0.16064453,-0.4272461,-0.24414062,0.0,0.0,0.0,0.0,108.220825,58.529663,-169.22241
2026-03-20 00:31:24.922,1773937884922,1773937884922,-0.8588867,0.49365234,-0.16064453,-0.4272461,-0.24414062,0.0,0.0,0.0,0.0,108.24829,58.518677,-169.14001
2026-03-20 00:31:25.010,1773937885010,1773937885010,-0.859375,0.49121094,-0.15478516,-0.4272461,0.24414062,0.0,0.0,0.0,0.0,108.24829,58.518677,-169.14001
2026-03-20 00:31:25.022,1773937885022,1773937885022,-0.859375,0.49121094,-0.15478516,-0.4272461,0.24414062,0.0,0.0,0.0,0.0,108.24829,58.50769,-169.07959
2026-03-20 00:31:25.110,1773937885110,1773937885110,-0.86083984,0.49121094,-0.16845703,-0.6713867,-0.24414062,0.0,0.0,0.0,0.0,108.24829,58.50769,-169.07959
2026-03-20 00:31:25.122,1773937885122,1773937885122,-0.86083984,0.49121094,-0.16845703,-0.6713867,-0.24414062,0.0,0.0,0.0,0.0,108.17139,58.518677,-169.11804
2026-03-20 00:31:25.209,1773937885209,1773937885209,-0.85839844,0.4897461,-0.1640625,-0.7324219,0.0,0.0,0.0,0.0,0.0,108.17139,58.518677,-169.11804
2026-03-20 00:31:25.221,1773937885221,1773937885221,-0.85839844,0.4897461,-0.1640625,-0.7324219,0.0,0.0,0.0,0.0,0.0,108.149414,58.518677,-169.08508
2026-03-20 00:31:25.309,1773937885309,1773937885309,-0.8569336,0.49560547,-0.15625,0.0,1.8920898,0.0,0.0,0.0,0.0,108.149414,58.518677,-169.08508
2026-03-20 00:31:25.320,1773937885320,1773937885320,-0.8569336,0.49560547,-0.15625,0.0,1.8920898,0.0,0.0,0.0,0.0,108.38013,58.480225,-168.8324
2026-03-20 00:31:25.409,1773937885409,1773937885409,-0.85791016,0.4970703,-0.1640625,0.4272461,0.48828125,0.0,0.0,0.0,0.0,108.38013,58.480225,-168.8324
2026-03-20 00:31:25.420,1773937885420,1773937885420,-0.85791016,0.4970703,-0.1640625,0.4272461,0.48828125,0.0,0.0,0.0,0.0,108.45703,58.46924,-168.77747
2026-03-20 00:31:25.508,1773937885508,1773937885508,-0.8544922,0.49072266,-0.16259766,0.12207031,0.061035156,0.0,0.0,0.0,0.0,108.45703,58.46924,-168.77747
2026-03-20 00:31:25.520,1773937885520,1773937885520,-0.8544922,0.49072266,-0.16259766,0.12207031,0.061035156,0.0,0.0,0.0,0.0,108.517456,58.458252,-168.71155
2026-03-20 00:31:25.608,1773937885608,1773937885608,-0.85498047,0.49169922,-0.16748047,0.48828125,2.6245117,-0.4272461,0.0,0.0,0.0,108.517456,58.458252,-168.71155
2026-03-20 00:31:25.620,1773937885620,1773937885620,-0.85498047,0.49169922,-0.16748047,0.48828125,2.6245117,-0.4272461,0.0,0.0,0.0,108.792114,58.425293,-168.45886
2026-03-20 00:31:25.708,1773937885708,1773937885708,-0.8598633,0.49316406,-0.16601562,0.18310547,0.9765625,-0.36621094,0.0,0.0,0.0,108.792114,58.425293,-168.45886
2026-03-20 00:31:25.719,1773937885719,1773937885719,-0.8598633,0.49316406,-0.16601562,0.18310547,0.9765625,-0.36621094,0.0,0.0,0.0,109.18213,58.40332,-168.04688
2026-03-20 00:31:25.807,1773937885807,1773937885807,-0.8574219,0.49414062,-0.16552734,0.18310547,0.48828125,-0.12207031,0.0,0.0,0.0,109.18213,58.40332,-168.04688
2026-03-20 00:31:25.819,1773937885819,1773937885819,-0.8574219,0.49414062,-0.16552734,0.18310547,0.48828125,-0.12207031,0.0,0.0,0.0,109.29199,58.414307,-167.93701
